Time,AccelerationX [m/s2],AccelerationY [m/s2],AccelerationZ [m/s2],Celsius [deg]
14:37:13,-0.05,-0.60,-9.93,24
14:37:13,-0.12,-0.71,-9.96,24
14:37:13,-0.12,-0.62,-9.92,24
14:37:13,0.01,-0.60,-9.92,24
14:37:13,-0.07,-0.61,-10.01,24
14:37:13,0.10,-0.66,-9.99,24
14:37:13,-0.11,-0.62,-10.05,24
14:37:13,-0.01,-0.66,-9.95,24
14:37:13,-0.02,-0.65,-9.99,24
14:37:13,-0.08,-0.56,-9.99,24
14:37:13,-0.01,-0.65,-9.92,24
14:37:13,-0.14,-0.54,-9.97,24
14:37:13,-0.07,-0.67,-9.88,24
14:37:13,-0.07,-0.59,-9.99,24
14:37:13,-0.03,-0.77,-9.90,24
14:37:13,-0.06,-0.64,-9.99,24
14:37:13,-0.08,-0.68,-9.99,24
14:37:13,-0.06,-0.64,-9.84,24
14:37:13,0.02,-0.74,-9.92,24
14:37:13,-0.10,-0.70,-9.92,24
14:37:13,-0.02,-0.63,-9.87,24
14:37:13,-0.09,-0.70,-9.91,24
14:37:13,-0.09,-0.70,-9.93,24
14:37:13,-0.14,-0.72,-9.93,24
14:37:13,-0.11,-0.68,-9.93,24
14:37:13,-0.05,-0.68,-9.97,24
14:37:13,-0.12,-0.63,-10.04,24
14:37:13,-0.02,-0.60,-10.07,24
14:37:13,0.02,-0.61,-9.93,24
14:37:13,-0.07,-0.59,-10.01,24
14:37:13,-0.08,-0.68,-9.96,24
14:37:13,0.04,-0.56,-9.90,24
14:37:13,-0.09,-0.67,-9.97,24
14:37:13,-0.12,-0.65,-9.93,24
14:37:13,-0.02,-0.58,-10.03,24
14:37:13,0.00,-0.69,-9.92,24
14:37:13,-0.11,-0.70,-9.91,24
14:37:13,-0.10,-0.66,-9.97,24
14:37:13,-0.07,-0.65,-10.05,24
14:37:13,-0.03,-0.76,-9.92,24
14:37:13,-0.05,-0.65,-9.95,24
14:37:13,-0.12,-0.57,-10.00,24
14:37:13,-0.01,-0.64,-9.90,24
14:37:13,0.00,-0.59,-9.97,24
14:37:13,-0.11,-0.66,-9.94,24
14:37:13,-0.15,-0.67,-9.91,24
14:37:13,0.00,-0.69,-10.00,24
14:37:13,-0.04,-0.64,-10.04,24
14:37:13,-0.06,-0.68,-9.86,24
14:37:13,-0.04,-0.62,-9.99,24
14:37:13,-0.14,-0.64,-10.00,24
14:37:13,0.00,-0.74,-10.03,24
14:37:13,-0.12,-0.67,-9.97,24
14:37:13,-0.04,-0.69,-10.03,24
14:37:13,-0.02,-0.65,-9.96,24
14:37:13,-0.02,-0.60,-9.91,24
14:37:13,-0.05,-0.62,-9.98,24
14:37:13,-0.15,-0.64,-10.02,24
14:37:13,-0.06,-0.69,-9.94,24
14:37:13,-0.06,-0.67,-9.95,24
14:37:13,-0.06,-0.77,-9.98,24
14:37:13,-0.06,-0.69,-9.98,24
14:37:13,-0.07,-0.56,-9.93,24
14:37:13,-0.06,-0.64,-9.97,24
14:37:13,-0.08,-0.54,-9.96,24
14:37:13,-0.06,-0.66,-9.97,24
14:37:13,-0.06,-0.75,-10.04,24
14:37:13,0.06,-0.64,-10.01,24
14:37:13,-0.03,-0.66,-10.00,24
14:37:13,-0.05,-0.63,-9.94,24
14:37:13,-0.02,-0.62,-9.90,24
14:37:13,-0.05,-0.64,-9.92,24
14:37:13,0.02,-0.71,-9.87,24
14:37:13,-0.08,-0.60,-9.95,24
14:37:13,-0.10,-0.64,-10.09,24
14:37:13,0.01,-0.67,-9.98,24
14:37:13,-0.13,-0.58,-9.91,24
14:37:13,-0.04,-0.67,-9.95,24
14:37:13,0.04,-0.68,-9.99,24
14:37:13,-0.06,-0.57,-10.01,24
14:37:13,-0.10,-0.64,-9.97,24
14:37:13,-0.03,-0.69,-9.93,24
14:37:13,-0.05,-0.57,-9.99,24
14:37:13,-0.02,-0.68,-9.97,24
14:37:13,0.00,-0.63,-9.98,24
14:37:13,-0.05,-0.56,-9.97,24
14:37:13,0.03,-0.70,-9.91,24
14:37:13,-0.06,-0.55,-9.92,24
14:37:13,-0.02,-0.74,-10.04,24
14:37:13,-0.04,-0.72,-10.08,24
14:37:13,-0.11,-0.64,-9.91,24
14:37:13,-0.11,-0.65,-9.87,24
14:37:13,0.04,-0.60,-9.98,24
14:37:13,-0.06,-0.63,-9.96,24
14:37:13,-0.17,-0.69,-9.95,24
14:37:13,-0.01,-0.59,-10.03,24
14:37:13,-0.05,-0.65,-9.29,24
14:37:13,-0.10,-0.71,-10.03,24
14:37:13,-0.12,-0.03,-9.97,24
14:37:13,-0.03,-0.57,-9.95,24
14:37:13,-0.12,-0.67,-9.80,24
14:37:13,0.02,-0.66,-10.01,24
14:37:13,-0.03,-0.57,-9.86,24
14:37:13,0.03,-0.66,-9.95,24
14:37:13,-0.01,-0.65,-9.98,24
14:37:13,0.05,-0.54,-9.99,24
14:37:13,-0.14,-0.74,-9.94,24
14:37:13,-0.12,-0.66,-9.93,24
14:37:13,-0.11,-0.69,-9.99,24
14:37:13,-0.05,-0.77,-10.02,24
14:37:13,0.00,-0.62,-9.74,24
14:37:13,-0.08,-0.58,-9.90,24
14:37:13,-0.06,-0.65,-9.96,24
14:37:13,-0.11,-0.63,-10.00,24
14:37:13,-0.01,-0.61,-9.96,24
14:37:13,-0.04,-0.67,-9.96,24
14:37:13,-0.04,-0.65,-10.06,24
14:37:13,-0.10,-0.69,-9.86,24
14:37:13,0.02,-0.68,-9.89,24
14:37:13,0.02,-0.69,-9.98,24
14:37:13,-0.09,-0.68,-10.02,24
14:37:13,-0.06,-0.67,-9.91,24
14:37:13,-0.05,-0.65,-10.05,24
14:37:13,-0.07,-0.70,-9.95,24
14:37:13,0.02,-0.63,-9.91,24
14:37:13,-0.04,-0.68,-10.00,24
14:37:13,-0.04,-0.65,-10.04,24
14:37:13,0.01,-0.70,-9.92,24
14:37:13,0.00,-0.65,-10.01,24
14:37:13,-0.04,-0.71,-10.02,24
14:37:13,-0.14,-0.61,-9.91,24
14:37:13,0.00,-0.63,-9.88,24
14:37:13,0.07,-0.59,-10.04,24
14:37:13,-0.06,-0.67,-9.96,24
14:37:13,0.05,-0.71,-9.95,24
14:37:13,0.01,-0.53,-9.92,24
14:37:13,-0.02,-0.72,-9.97,24
14:37:13,-0.11,-0.56,-9.88,24
14:37:13,-0.08,-0.68,-9.95,24
14:37:13,-0.08,-0.63,-9.92,24
14:37:13,-0.02,-0.65,-9.99,24
14:37:13,-0.05,-0.62,-9.92,24
14:37:13,-0.05,-0.71,-9.95,24
14:37:13,-0.01,-0.69,-9.91,24
14:37:13,-0.16,-0.54,-10.04,24
14:37:13,-0.11,-0.72,-9.94,24
14:37:13,-0.13,-0.59,-9.96,24
14:37:13,-0.05,-0.62,-9.86,24
14:37:13,-0.07,-0.54,-10.01,24
14:37:13,0.00,-0.67,-9.95,24
14:37:13,0.04,-0.73,-9.89,24
14:37:13,-0.11,-0.60,-9.95,24
14:37:13,0.00,-0.73,-9.97,24
14:37:13,0.02,-0.61,-9.97,24
14:37:13,-0.10,-0.58,-10.01,24
14:37:13,-0.07,-0.66,-9.94,24
14:37:13,-0.08,-0.66,-9.92,24
14:37:13,-0.05,-0.71,-9.93,24
14:37:13,-0.07,-0.54,-9.86,24
14:37:13,0.00,-0.67,-9.93,24
14:37:13,-0.06,-0.66,-9.98,24
14:37:13,-0.01,-0.59,-9.94,24
14:37:13,-0.11,-0.62,-10.03,24
14:37:13,-0.03,-0.56,-9.86,24
14:37:13,-0.07,-0.57,-9.87,24
14:37:13,-0.18,-0.70,-10.02,24
14:37:13,-0.04,-0.71,-9.97,24
14:37:14,-0.12,-0.61,-9.90,24
14:37:14,-0.09,-0.69,-9.96,24
14:37:14,-0.02,-0.60,-9.95,24
14:37:14,0.00,-0.66,-9.96,24
14:37:14,0.00,-0.73,-9.88,24
14:37:14,-0.13,-0.64,-9.83,24
14:37:14,0.00,-0.53,-9.90,24
14:37:14,-0.11,-0.68,-9.95,24
14:37:14,-0.08,-0.76,-10.05,24
14:37:14,0.00,-0.59,-9.88,24
14:37:14,0.00,-0.65,-9.86,24
14:37:14,-0.03,-0.65,-9.98,24
14:37:14,-0.14,-0.67,-9.94,24
14:37:14,-0.08,-0.64,-9.97,24
14:37:14,-0.06,-0.68,-9.92,24
14:37:14,-0.06,-0.71,-9.92,24
14:37:14,-0.06,-0.63,-9.91,24
14:37:14,-0.12,-0.64,-10.01,24
14:37:14,-0.19,-0.60,-9.86,24
14:37:14,0.00,-0.65,-9.92,24
14:37:14,0.04,-0.69,-10.05,24
14:37:14,-0.01,-0.67,-9.85,24
14:37:14,-0.03,-0.68,-9.83,24
14:37:14,-0.09,-0.65,-10.04,24
14:37:14,-0.01,-0.71,-10.02,24
14:37:14,0.02,-0.74,-9.95,24
14:37:14,-0.12,-0.64,-9.96,24
14:37:14,-0.09,-0.64,-9.91,24
14:37:14,-0.08,-0.68,-9.98,24
14:37:14,-0.04,-0.64,-9.98,24
14:37:14,-0.03,-0.65,-9.91,24
14:37:14,-0.07,-0.59,-9.99,24
14:37:14,-0.13,-0.72,-9.95,24
14:37:14,-0.13,-0.56,-9.86,24
14:37:14,-0.04,-0.65,-9.90,24
14:37:14,-0.07,-0.54,-9.93,24
14:37:14,-0.12,-0.66,-9.95,24
14:37:14,-0.10,-0.59,-9.89,24
14:37:14,-0.14,-0.63,-9.97,24
14:37:14,-0.07,-0.56,-10.04,24
14:37:14,-0.14,-0.60,-9.88,24
14:37:14,-0.01,-0.64,-10.01,24
14:37:14,-0.07,-0.71,-9.98,24
14:37:14,-0.08,-0.56,-10.00,24
14:37:14,-0.03,-0.67,-9.97,24
14:37:14,-0.17,-0.68,-10.04,24
14:37:14,-0.07,-0.55,-9.95,24
14:37:14,0.01,-0.69,-9.93,24
14:37:14,-0.12,-0.60,-9.97,24
14:37:14,-0.07,-0.76,-9.95,24
14:37:14,-0.05,-0.59,-9.99,24
14:37:14,0.00,-0.67,-10.00,24
14:37:14,0.04,-0.57,-9.88,24
14:37:14,-0.06,-0.63,-9.96,24
14:37:14,-0.07,-0.55,-9.90,24
14:37:14,-0.16,-0.65,-9.96,24
14:37:14,0.00,-0.71,-9.93,24
14:37:14,-0.10,-0.64,-10.03,24
14:37:14,-0.12,-0.70,-9.87,24
14:37:14,-0.11,-0.56,-9.96,24
14:37:14,-0.10,-0.64,-9.89,24
14:37:14,-0.03,-0.66,-10.00,24
14:37:14,-0.10,-0.67,-9.91,24
14:37:14,-0.09,-0.64,-10.01,24
14:37:14,-0.09,-0.62,-9.90,24
14:37:14,0.03,-0.58,-9.98,24
14:37:14,-0.11,-0.73,-9.95,24
14:37:14,-0.06,-0.66,-9.90,24
14:37:14,0.00,-0.62,-9.89,24
14:37:14,-0.02,-0.61,-9.95,24
14:37:14,-0.13,-0.68,-10.05,24
14:37:14,-0.09,-0.71,-9.97,24
14:37:14,-0.05,-0.59,-9.99,24
14:37:14,-0.04,-0.63,-9.86,24
14:37:14,-0.05,-0.60,-9.93,24
14:37:14,-0.01,-0.77,-9.99,24
14:37:14,-0.09,-0.66,-9.96,24
14:37:14,0.06,-0.75,-10.01,24
14:37:14,-0.10,-0.65,-10.00,24
14:37:14,-0.16,-0.67,-9.90,24
14:37:14,-0.05,-0.64,-9.90,24
14:37:14,-0.11,-0.70,-9.90,24
14:37:14,-0.06,-0.55,-9.94,24
14:37:14,-0.10,-0.64,-9.99,24
14:37:14,-0.13,-0.64,-10.02,24
14:37:14,-0.04,-0.71,-9.99,24
14:37:14,-0.15,-0.77,-9.96,24
14:37:14,-0.03,-0.56,-9.96,24
14:37:14,-0.07,-0.55,-9.94,24
14:37:14,0.00,-0.60,-9.91,24
14:37:14,0.01,-0.62,-10.00,24
14:37:14,-0.02,-0.65,-10.02,24
14:37:14,-0.05,-0.60,-9.88,24
14:37:14,-0.16,-0.64,-9.98,24
14:37:14,-0.08,-0.75,-10.02,24
14:37:14,-0.09,-0.64,-10.01,24
14:37:14,-0.06,-0.66,-9.92,24
14:37:14,-0.09,-0.71,-9.90,24
14:37:14,-0.02,-0.66,-9.90,24
14:37:14,-0.07,-0.59,-10.01,24
14:37:14,-0.05,-0.63,-10.01,24
14:37:14,-0.04,-0.62,-9.92,24
14:37:14,-0.05,-0.63,-9.87,24
14:37:14,-0.14,-0.71,-9.93,24
14:37:14,-0.06,-0.58,-9.34,24
14:37:14,-0.05,-0.73,-9.95,24
14:37:14,-0.08,-0.61,-10.01,24
14:37:14,-0.04,-0.66,-9.97,24
14:37:14,-0.16,-0.58,-9.90,24
14:37:14,-0.09,-0.57,-10.05,24
14:37:14,0.00,-0.57,-9.95,24
14:37:14,-0.04,-0.64,-9.92,24
14:37:14,-0.11,-0.63,-9.99,24
14:37:14,-0.08,-0.60,-10.03,24
14:37:14,-0.05,-0.57,-9.98,24
14:37:14,-0.16,-0.64,-10.03,24
14:37:14,-0.02,-0.66,-9.84,24
14:37:14,-0.07,-0.68,-10.08,24
14:37:14,-0.06,-0.63,-9.97,24
14:37:14,-0.07,-0.71,-9.94,24
14:37:14,-0.15,-0.68,-9.96,24
14:37:14,0.04,-0.60,-10.04,24
14:37:14,-0.02,-0.71,-9.94,24
14:37:14,-0.09,-0.55,-9.96,24
14:37:14,-0.14,-0.58,-9.91,24
14:37:14,-0.08,-0.69,-9.88,24
14:37:14,-0.14,-0.76,-9.92,24
14:37:14,-0.03,-0.76,-9.94,24
14:37:14,0.02,-0.68,-9.98,24
14:37:14,0.05,-0.65,-10.00,24
14:37:14,-0.08,-0.66,-9.91,24
14:37:14,-0.07,-0.64,-9.97,24
14:37:14,-0.08,-0.72,-9.92,24
14:37:14,-0.03,-0.62,-10.02,24
14:37:14,-0.06,-0.64,-9.98,24
14:37:14,-0.04,-0.69,-10.00,24
14:37:14,-0.11,-0.60,-9.99,24
14:37:14,-0.14,-0.67,-9.90,24
14:37:14,-0.03,-0.52,-9.97,24
14:37:14,-0.09,-0.64,-10.00,24
14:37:14,-0.05,-0.62,-9.93,24
14:37:14,-0.05,-0.64,-10.02,24
14:37:14,-0.06,-0.65,-9.99,24
14:37:14,-0.07,-0.60,-9.99,24
14:37:14,-0.05,-0.68,-9.90,24
14:37:14,0.03,-0.67,-10.01,24
14:37:14,-0.01,-0.63,-9.95,24
14:37:14,-0.04,-0.58,-10.00,24
14:37:14,-0.04,-0.78,-9.93,24
14:37:14,0.02,-0.63,-10.01,24
14:37:14,-0.12,-0.72,-10.01,24
14:37:14,-0.03,-0.56,-9.91,24
14:37:14,-0.08,-0.62,-9.94,24
14:37:14,-0.05,-0.62,-9.83,24
14:37:14,-0.12,-0.64,-9.99,24
14:37:14,-0.11,-0.64,-9.92,24
14:37:14,0.04,-0.63,-9.97,24
14:37:14,-0.11,-0.65,-9.94,24
14:37:14,-0.10,-0.64,-9.90,24
14:37:14,0.02,-0.65,-10.07,24
14:37:14,0.02,-0.56,-10.00,24
14:37:14,-0.05,-0.58,-9.90,24
14:37:14,0.06,-0.64,-10.01,24
14:37:14,-0.12,-0.64,-9.97,24
14:37:14,-0.04,-0.66,-10.02,24
14:37:14,0.00,-0.67,-10.01,24
14:37:14,0.00,-0.67,-9.92,24
14:37:14,-0.17,-0.70,-9.95,24
14:37:14,0.01,-0.70,-10.04,24
14:37:14,0.10,-0.68,-9.91,24
14:37:14,0.02,-0.58,-9.96,24
14:37:14,-0.04,-0.62,-9.98,24
14:37:14,-0.04,-0.60,-9.96,24
14:37:14,-0.11,-0.64,-9.92,24
14:37:14,-0.13,-0.67,-9.97,24
14:37:14,-0.10,-0.64,-9.95,24
14:37:14,-0.05,-0.64,-10.03,24
14:37:14,0.00,-0.65,-9.95,24
14:37:14,-0.06,-0.73,-9.95,24
14:37:14,-0.02,-0.64,-9.96,24
14:37:14,-0.13,-0.60,-9.92,24
14:37:14,-0.09,-0.64,-9.89,24
14:37:14,-0.05,-0.69,-9.94,24
14:37:14,0.01,-0.62,-9.88,24
14:37:14,0.00,-0.64,-9.91,24
14:37:14,-0.07,-0.59,-9.87,24
14:37:14,-0.03,-0.62,-10.03,24
14:37:14,-0.06,-0.56,-9.88,24
14:37:14,-0.13,-0.50,-9.90,24
14:37:14,-0.10,-0.66,-9.96,24
14:37:14,-0.06,-0.62,-9.92,24
14:37:14,-0.14,-0.65,-10.01,24
14:37:14,-0.09,-0.66,-9.99,24
14:37:14,0.08,-0.68,-9.90,24
14:37:14,-0.06,-0.63,-9.95,24
14:37:14,-0.04,-0.63,-10.11,24
14:37:14,0.05,-0.67,-9.95,24
14:37:14,-0.06,-0.62,-10.02,24
14:37:14,-0.06,-0.57,-10.02,24
14:37:14,-0.12,-0.62,-9.94,24
14:37:14,-0.05,-0.63,-9.92,24
14:37:14,-0.10,-0.64,-9.82,24
14:37:14,-0.03,-0.65,-9.78,24
14:37:14,-0.04,-0.68,-9.85,24
14:37:14,-0.04,-0.71,-10.01,24
14:37:14,0.00,-0.68,-9.97,24
14:37:14,-0.07,-0.69,-9.90,24
14:37:14,-0.07,-0.60,-9.94,24
14:37:14,-0.07,-0.59,-10.06,24
14:37:14,-0.07,-0.76,-9.95,24
14:37:14,-0.14,-0.62,-9.91,24
14:37:14,-0.13,-0.56,-10.01,24
14:37:14,0.02,-0.68,-9.90,24
14:37:14,-0.03,-0.59,-9.90,24
14:37:14,-0.10,-0.71,-9.90,24
14:37:14,-0.12,-0.55,-10.11,24
14:37:14,-0.06,-0.62,-10.00,24
14:37:14,-0.04,-0.63,-9.91,24
14:37:14,-0.01,-0.60,-9.98,24
14:37:14,-0.14,-0.61,-9.92,24
14:37:14,-0.03,-0.65,-9.95,24
14:37:14,-0.13,-0.59,-9.96,24
14:37:14,-0.19,-0.62,-9.95,24
14:37:14,-0.05,-0.73,-9.82,24
14:37:14,-0.04,-0.74,-9.99,24
14:37:14,-0.12,-0.71,-9.89,24
14:37:14,-0.06,-0.52,-10.00,24
14:37:14,-0.05,-0.70,-9.96,24
14:37:14,-0.04,-0.60,-9.91,24
14:37:14,-0.18,-0.67,-10.04,24
14:37:14,-0.03,-0.63,-10.04,24
14:37:14,-0.07,-0.73,-9.84,24
14:37:14,-0.08,-0.53,-9.92,24
14:37:15,-0.04,-0.66,-9.94,24
14:37:15,0.00,-0.67,-9.85,24
14:37:15,0.02,-0.67,-9.93,24
14:37:15,0.02,-0.64,-9.86,24
14:37:15,0.05,-0.64,-9.94,24
14:37:15,-0.09,-0.61,-9.92,24
14:37:15,-0.07,-0.60,-9.99,24
14:37:15,0.00,-0.70,-9.93,24
14:37:15,-0.09,-0.75,-9.86,24
14:37:15,-0.07,-0.51,-9.91,24
14:37:15,-0.01,-0.65,-9.93,24
14:37:15,-0.05,-0.70,-9.93,24
14:37:15,-0.06,-0.67,-9.87,24
14:37:15,-0.07,-0.67,-10.05,24
14:37:15,0.04,-0.54,-10.01,24
14:37:15,-0.18,-0.64,-9.87,24
14:37:15,-0.11,-0.52,-10.00,24
14:37:15,-0.05,-0.71,-9.95,24
14:37:15,-0.02,-0.74,-9.90,24
14:37:15,-0.15,-0.66,-9.96,24
14:37:15,0.01,-0.58,-9.94,24
14:37:15,-0.06,-0.58,-9.91,24
14:37:15,0.02,-0.66,-9.91,24
14:37:15,0.03,-0.63,-9.93,24
14:37:15,0.02,-0.66,-9.98,24
14:37:15,-0.05,-0.73,-9.94,24
14:37:15,-0.01,-0.65,-10.03,24
14:37:15,-0.20,-0.70,-9.98,24
14:37:15,-0.01,-0.71,-9.97,24
14:37:15,-0.07,-0.73,-9.96,24
14:37:15,-0.10,-0.63,-10.00,24
14:37:15,-0.05,-0.66,-9.98,24
14:37:15,-0.03,-0.63,-9.89,24
14:37:15,-0.04,-0.66,-9.88,24
14:37:15,-0.09,-0.51,-9.94,24
14:37:15,-0.13,-0.64,-9.96,24
14:37:15,-0.11,-0.66,-9.90,24
14:37:15,-0.10,-0.66,-9.93,24
14:37:15,-0.05,-0.61,-9.95,24
14:37:15,-0.07,-0.62,-9.97,24
14:37:15,-0.15,-0.66,-9.89,24
14:37:15,-0.01,-0.68,-9.97,24
14:37:15,-0.04,-0.61,-9.97,24
14:37:15,-0.04,-0.65,-9.96,24
14:37:15,-0.04,-0.68,-9.97,24
14:37:15,0.04,-0.65,-9.95,24
14:37:15,-0.08,-0.61,-9.96,24
14:37:15,-0.05,-0.62,-9.94,24
14:37:15,0.07,-0.62,-9.97,24
14:37:15,-0.16,-0.71,-9.81,24
14:37:15,0.01,-0.62,-9.91,24
14:37:15,-0.06,-0.56,-9.98,24
14:37:15,-0.09,-0.57,-9.94,24
14:37:15,-0.01,-0.53,-9.84,24
14:37:15,-0.12,-0.65,-9.82,24
14:37:15,-0.07,-0.65,-9.99,24
14:37:15,0.00,-0.63,-10.00,24
14:37:15,-0.16,-0.61,-9.97,24
14:37:15,-0.03,-0.63,-9.95,24
14:37:15,-0.10,-0.61,-9.92,24
14:37:15,-0.05,-0.73,-9.98,24
14:37:15,0.00,-0.63,-9.93,24
14:37:15,-0.12,-0.60,-9.98,24
14:37:15,0.00,-0.70,-9.97,24
14:37:15,-0.10,-0.62,-9.90,24
14:37:15,-0.02,-0.65,-9.92,24
14:37:15,-0.08,-0.73,-9.94,24
14:37:15,-0.09,-0.56,-9.90,24
14:37:15,-0.01,-0.69,-9.94,24
14:37:15,-0.09,-0.77,-9.96,24
14:37:15,-0.02,-0.64,-10.05,24
14:37:15,0.04,-0.59,-9.95,24
14:37:15,0.00,-0.64,-9.96,24
14:37:15,0.02,-0.70,-9.92,24
14:37:15,-0.08,-0.63,-9.95,24
14:37:15,-0.04,-0.54,-9.99,24
14:37:15,-0.16,-0.61,-9.97,24
14:37:15,-0.04,-0.64,-10.00,24
14:37:15,-0.04,-0.66,-9.97,24
14:37:15,-0.04,-0.66,-9.88,24
14:37:15,0.01,-0.64,-9.94,24
14:37:15,-0.10,-0.67,-9.91,24
14:37:15,0.01,-0.68,-9.96,24
14:37:15,-0.03,-0.75,-9.92,24
14:37:15,-0.03,-0.64,-10.03,24
14:37:15,-0.05,-0.65,-9.95,24
14:37:15,-0.11,-0.68,-9.87,24
14:37:15,-0.12,-0.63,-9.99,24
14:37:15,-0.08,-0.58,-9.98,24
14:37:15,-0.11,-0.67,-10.00,24
14:37:15,-0.08,-0.63,-9.95,24
14:37:15,-0.18,-0.70,-10.01,24
14:37:15,-0.15,-0.70,-10.01,24
14:37:15,0.00,-0.60,-9.92,24
14:37:15,-0.06,-0.68,-9.32,24
14:37:15,-0.06,-1.18,-9.87,24
14:37:15,-0.01,-0.60,-9.93,24
14:37:15,-0.02,-0.63,-9.93,24
14:37:15,-0.02,-0.63,-9.89,24
14:37:15,-0.02,-0.64,-9.97,24
14:37:15,0.03,-0.68,-9.91,24
14:37:15,-0.01,-0.56,-9.81,24
14:37:15,-0.07,-0.64,-10.05,24
14:37:15,0.01,-0.61,-9.92,24
14:37:15,-0.13,-0.60,-9.85,24
14:37:15,0.00,-0.63,-9.94,24
14:37:15,-0.06,-0.59,-9.93,24
14:37:15,-0.09,-0.64,-9.89,24
14:37:15,-0.17,-0.62,-10.03,24
14:37:15,0.01,-0.65,-9.97,24
14:37:15,0.03,-0.48,-9.99,24
14:37:15,0.03,-0.62,-9.97,24
14:37:15,-0.12,-0.79,-9.92,24
14:37:15,0.00,-0.60,-10.03,24
14:37:15,-0.09,-0.63,-9.91,24
14:37:15,-0.18,-0.64,-9.89,24
14:37:15,0.06,-0.69,-9.98,24
14:37:15,-0.04,-0.67,-10.01,24
14:37:15,0.03,-0.72,-9.89,24
14:37:15,0.04,-0.69,-9.96,24
14:37:15,-0.11,-0.62,-9.98,24
14:37:15,-0.04,-0.65,-9.95,24
14:37:15,-0.11,-0.59,-9.83,24
14:37:15,-0.09,-0.57,-9.98,24
14:37:15,0.00,-0.64,-9.84,24
14:37:15,-0.05,-0.68,-10.01,24
14:37:15,-0.11,-0.65,-9.95,24
14:37:15,-0.13,-0.73,-9.98,24
14:37:15,-0.06,-0.56,-9.84,24
14:37:15,-0.01,-0.59,-9.97,24
14:37:15,-0.11,-0.64,-9.89,24
14:37:15,0.05,-0.53,-9.84,24
14:37:15,-0.09,-0.67,-10.00,24
14:37:15,-0.14,-0.68,-10.03,24
14:37:15,-0.14,-0.66,-9.90,24
14:37:15,-0.10,-0.73,-10.02,24
14:37:15,-0.06,-0.43,-10.11,24
14:37:15,-0.02,-0.71,-9.97,24
14:37:15,-0.13,-0.62,-9.94,24
14:37:15,-0.02,-0.60,-9.96,24
14:37:15,-0.15,-0.68,-9.87,24
14:37:15,-0.05,-0.59,-9.90,24
14:37:15,-0.06,-0.70,-9.97,24
14:37:15,-0.14,-0.68,-10.02,24
14:37:15,-0.04,-0.61,-10.02,24
14:37:15,-0.09,-0.63,-9.91,24
14:37:15,0.01,-0.73,-10.02,24
14:37:15,-0.08,-0.67,-9.99,24
14:37:15,-0.07,-0.66,-9.96,24
14:37:15,-0.07,-0.65,-9.95,24
14:37:15,-0.15,-0.67,-9.94,24
14:37:15,-0.14,-0.62,-10.09,24
14:37:15,-0.10,-0.67,-10.04,24
14:37:15,-0.05,-0.66,-10.06,24
14:37:15,-0.08,-0.60,-9.90,24
14:37:15,-0.01,-0.73,-9.90,24
14:37:15,-0.01,-0.59,-9.99,24
14:37:15,-0.12,-0.66,-9.95,24
14:37:15,-0.12,-0.60,-9.94,24
14:37:15,-0.11,-0.66,-9.95,24
14:37:15,-0.13,-0.60,-10.05,24
14:37:15,-0.07,-0.71,-10.05,24
14:37:15,-0.03,-0.62,-9.95,24
14:37:15,-0.10,-0.72,-9.94,24
14:37:15,-0.13,-0.67,-9.94,24
14:37:15,-0.11,-0.61,-9.93,24
14:37:15,-0.02,-0.68,-9.97,24
14:37:15,-0.07,-0.57,-10.09,24
14:37:15,-0.05,-0.50,-9.97,24
14:37:15,-0.13,-0.70,-9.95,24
14:37:15,-0.11,-0.68,-10.06,24
14:37:15,-0.02,-0.53,-9.94,24
14:37:15,-0.02,-0.64,-9.99,24
14:37:15,-0.11,-0.71,-9.88,24
14:37:15,-0.07,-0.68,-9.97,24
14:37:15,-0.04,-0.66,-9.92,24
14:37:15,-0.07,-0.65,-10.02,24
14:37:15,-0.10,-0.68,-9.94,24
14:37:15,-0.08,-0.62,-9.97,24
14:37:15,0.00,-0.58,-10.02,24
14:37:15,-0.09,-0.73,-9.96,24
14:37:15,-0.08,-0.56,-10.04,24
14:37:15,0.02,-0.61,-10.03,24
14:37:15,-0.08,-0.64,-9.88,24
14:37:15,-0.05,-0.57,-9.97,24
14:37:15,-0.15,-0.68,-9.91,24
14:37:15,0.01,-0.73,-9.93,24
14:37:15,-0.12,-0.59,-10.04,24
14:37:15,0.01,-0.67,-9.96,24
14:37:15,-0.07,-0.65,-9.98,24
14:37:15,0.04,-0.60,-9.95,24
14:37:15,-0.06,-0.76,-10.01,24
14:37:15,-0.05,-0.66,-9.83,24
14:37:15,-0.12,-0.56,-9.95,24
14:37:15,-0.13,-0.66,-9.98,24
14:37:15,0.03,-0.56,-10.01,24
14:37:15,-0.12,-0.65,-10.03,24
14:37:15,-0.07,-0.65,-10.00,24
14:37:15,-0.11,-0.60,-9.98,24
14:37:15,-0.06,-0.71,-10.00,24
14:37:15,-0.08,-0.72,-9.88,24
14:37:15,-0.01,-0.53,-10.01,24
14:37:15,-0.03,-0.66,-9.98,24
14:37:15,-0.03,-0.62,-9.88,24
14:37:15,-0.16,-0.59,-9.95,24
14:37:15,-0.03,-0.63,-9.95,24
14:37:15,-0.11,-0.57,-10.00,24
14:37:15,0.04,-0.65,-9.91,24
14:37:15,0.00,-0.66,-10.01,24
14:37:15,0.01,-0.62,-9.94,24
14:37:15,-0.07,-0.65,-9.96,24
14:37:15,-0.13,-0.59,-9.97,24
14:37:15,-0.06,-0.62,-9.86,24
14:37:15,-0.01,-0.75,-9.94,24
14:37:15,-0.13,-0.76,-9.96,24
14:37:15,-0.21,-0.63,-9.89,24
14:37:15,-0.13,-0.69,-9.93,24
14:37:15,-0.07,-0.64,-9.89,24
14:37:15,-0.05,-0.61,-9.90,24
14:37:15,-0.12,-0.56,-10.05,24
14:37:15,-0.04,-0.66,-9.92,24
14:37:15,-0.06,-0.63,-9.90,24
14:37:15,-0.04,-0.65,-9.99,24
14:37:15,-0.06,-0.63,-9.99,24
14:37:15,0.05,-0.56,-9.94,24
14:37:15,0.03,-0.59,-9.95,24
14:37:15,-0.06,-0.62,-9.93,24
14:37:15,0.00,-0.69,-10.11,24
14:37:15,-0.14,-0.59,-9.99,24
14:37:15,-0.11,-0.62,-9.89,24
14:37:15,-0.06,-0.71,-9.98,24
14:37:15,-0.07,-0.65,-10.01,24
14:37:16,-0.02,-0.66,-9.89,24
14:37:16,0.56,-0.74,-10.01,24
14:37:16,0.02,-0.63,-10.51,24
14:37:16,0.02,-0.77,-9.91,24
14:37:16,-0.08,-0.74,-9.95,24
14:37:16,-0.14,-0.52,-9.96,24
14:37:16,-0.09,-0.63,-10.01,24
14:37:16,-0.22,-0.62,-9.82,24
14:37:16,-0.07,-0.58,-10.05,24
14:37:16,-0.13,-0.67,-10.00,24
14:37:16,0.05,-0.61,-10.00,24
14:37:16,0.02,-0.55,-9.91,24
14:37:16,-0.04,-0.56,-9.84,24
14:37:16,-0.03,-0.68,-9.95,24
14:37:16,-0.09,-0.62,-9.93,24
14:37:16,-0.14,-0.72,-10.01,24
14:37:16,-0.07,-0.69,-10.01,24
14:37:16,-0.07,-0.57,-9.97,24
14:37:16,-0.11,-0.65,-9.85,24
14:37:16,-0.12,-0.65,-10.06,24
14:37:16,-0.08,-0.63,-9.96,24
14:37:16,0.00,-0.68,-9.98,24
14:37:16,-0.01,-0.64,-10.01,24
14:37:16,-0.04,-0.71,-9.99,24
14:37:16,-0.04,-0.67,-9.94,24
14:37:16,-0.12,-0.60,-9.93,24
14:37:16,0.02,-0.61,-9.97,24
14:37:16,-0.13,-0.58,-9.78,24
14:37:16,-0.08,-0.60,-10.02,24
14:37:16,-0.06,-0.71,-9.94,24
14:37:16,-0.06,-0.66,-9.96,24
14:37:16,-0.15,-0.65,-9.96,24
14:37:16,-0.08,-0.56,-10.05,24
14:37:16,-0.06,-0.64,-9.97,24
14:37:16,-0.04,-0.64,-10.07,24
14:37:16,-0.12,-0.63,-9.93,24
14:37:16,-0.02,-0.68,-9.94,24
14:37:16,-0.03,-0.64,-9.95,24
14:37:16,-0.02,-0.66,-9.91,24
14:37:16,-0.10,-0.54,-9.85,24
14:37:16,-0.09,-0.65,-9.91,24
14:37:16,-0.07,-0.60,-9.91,24
14:37:16,-0.03,-0.74,-9.98,24
14:37:16,-0.09,-0.61,-9.95,24
14:37:16,-0.02,-0.71,-9.94,24
14:37:16,-0.07,-0.60,-9.91,24
14:37:16,-0.09,-0.63,-10.05,24
14:37:16,-0.04,-0.67,-9.95,24
14:37:16,0.05,-0.71,-9.95,24
14:37:16,-0.17,-0.73,-9.97,24
14:37:16,-0.11,-0.73,-9.87,24
14:37:16,-0.02,-0.53,-10.00,24
14:37:16,-0.06,-0.73,-9.90,24
14:37:16,-0.11,-0.71,-9.86,24
14:37:16,-0.13,-0.71,-9.84,24
14:37:16,0.01,-0.65,-9.96,24
14:37:16,-0.09,-0.64,-9.96,24
14:37:16,-0.11,-0.60,-10.01,24
14:37:16,0.07,-0.66,-9.98,24
14:37:16,-0.03,-0.60,-10.03,24
14:37:16,-0.15,-0.66,-10.08,24
14:37:16,0.05,-0.59,-10.01,24
14:37:16,-0.03,-0.56,-10.01,24
14:37:16,-0.07,-0.68,-9.97,24
14:37:16,0.00,-0.70,-9.97,24
14:37:16,0.00,-0.66,-10.01,24
14:37:16,-0.11,-0.63,-9.93,24
14:37:16,-0.08,-0.73,-10.05,24
14:37:16,-0.07,-0.64,-9.98,24
14:37:16,-0.11,-0.72,-10.00,24
14:37:16,-0.02,-0.75,-10.02,24
14:37:16,-0.02,-0.60,-9.93,24
14:37:16,-0.02,-0.67,-9.87,24
14:37:16,-0.24,-0.59,-9.99,24
14:37:16,-0.06,-0.67,-9.95,24
14:37:16,-0.13,-0.62,-9.87,24
14:37:16,-0.11,-0.74,-9.94,24
14:37:16,-0.05,-0.64,-9.98,24
14:37:16,-0.09,-0.71,-9.93,24
14:37:16,-0.14,-0.65,-9.94,24
14:37:16,-0.07,-0.72,-10.00,24
14:37:16,-0.13,-0.69,-9.97,24
14:37:16,-0.10,-0.73,-9.97,24
14:37:16,-0.09,-0.62,-10.06,24
14:37:16,-0.10,-0.65,-9.89,24
14:37:16,-0.07,-0.60,-9.94,24
14:37:16,-0.01,-0.70,-9.89,24
14:37:16,-0.05,-0.67,-9.97,24
14:37:16,0.03,-0.71,-10.00,24
14:37:16,-0.07,-0.58,-9.86,24
14:37:16,-0.09,-0.64,-9.93,24
14:37:16,0.05,-0.59,-9.91,24
14:37:16,0.07,-0.72,-10.03,24
14:37:16,-0.02,-0.64,-9.91,24
14:37:16,-0.07,-0.60,-9.90,24
14:37:16,-0.13,-0.65,-9.88,24
14:37:16,-0.08,-0.62,-9.94,24
14:37:16,-0.05,-0.63,-9.88,24
14:37:16,-0.05,-0.64,-9.91,24
14:37:16,-0.06,-0.55,-10.01,24
14:37:16,-0.07,-0.64,-9.96,24
14:37:16,-0.01,-0.71,-9.90,24
14:37:16,-0.09,-0.63,-9.89,24
14:37:16,-0.06,-0.66,-9.92,24
14:37:16,-0.06,-0.70,-10.00,24
14:37:16,-0.11,-0.62,-9.91,24
14:37:16,-0.04,-0.62,-10.04,24
14:37:16,-0.06,-0.61,-9.88,24
14:37:16,0.01,-0.65,-9.91,24
14:37:16,0.00,-0.62,-9.91,24
14:37:16,0.05,-0.63,-9.77,24
14:37:16,-0.10,-0.50,-10.05,24
14:37:16,-0.19,-0.60,-9.80,24
14:37:16,0.10,-0.70,-9.87,24
14:37:16,-0.01,-0.58,-9.85,24
14:37:16,-0.08,-0.69,-9.88,24
14:37:16,-0.09,-0.67,-9.92,24
14:37:16,-0.12,-0.59,-10.02,24
14:37:16,-0.13,-0.64,-10.00,24
14:37:16,0.05,-0.66,-9.92,24
14:37:16,-0.13,-0.63,-9.87,24
14:37:16,-0.17,-0.68,-9.97,24
14:37:16,-0.14,-0.63,-9.91,24
14:37:16,-0.14,-0.59,-9.89,24
14:37:16,-0.14,-0.69,-9.94,24
14:37:16,-0.10,-0.62,-9.89,24
14:37:16,-0.06,-0.65,-9.90,24
14:37:16,-0.01,-0.57,-9.83,24
14:37:16,-0.07,-0.54,-9.85,24
14:37:16,-0.08,-0.64,-9.92,24
14:37:16,-0.05,-0.70,-10.03,24
14:37:16,-0.20,-0.66,-9.98,24
14:37:16,0.00,-0.67,-9.87,24
14:37:16,-0.09,-0.67,-9.90,24
14:37:16,0.00,-0.63,-9.89,24
14:37:16,0.05,-0.63,-9.81,24
14:37:16,0.00,-0.65,-9.85,24
14:37:16,-0.12,-0.62,-10.04,24
14:37:16,-0.02,-0.62,-9.97,24
14:37:16,0.02,-0.74,-10.02,24
14:37:16,-0.16,-0.60,-9.92,24
14:37:16,-0.01,-0.63,-9.90,24
14:37:16,-0.13,-0.71,-9.91,24
14:37:16,-0.03,-0.58,-9.94,24
14:37:16,-0.05,-0.58,-9.98,24
14:37:16,-0.03,-0.59,-9.98,24
14:37:16,-0.10,-0.70,-9.90,24
14:37:16,-0.01,-0.63,-9.98,24
14:37:16,-0.04,-0.67,-9.95,24
14:37:16,-0.05,-0.64,-9.94,24
14:37:16,-0.09,-0.61,-9.93,24
14:37:16,-0.08,-0.76,-10.02,24
14:37:16,-0.12,-0.55,-9.97,24
14:37:16,-0.01,-0.58,-10.02,24
14:37:16,-0.03,-0.68,-9.99,24
14:37:16,-0.07,-0.65,-9.93,24
14:37:16,-0.01,-0.74,-9.92,24
14:37:16,-0.02,-0.68,-10.05,24
14:37:16,-0.08,-0.67,-10.04,24
14:37:16,-0.13,-0.59,-10.00,24
14:37:16,-0.03,-0.61,-9.93,24
14:37:16,-0.10,-0.63,-9.91,24
14:37:16,-0.04,-0.63,-9.97,24
14:37:16,-0.06,-0.62,-9.98,24
14:37:16,-0.11,-0.60,-10.04,24
14:37:16,-0.10,-0.67,-10.01,24
14:37:16,-0.04,-0.66,-9.89,24
14:37:16,-0.06,-0.59,-9.95,24
14:37:16,-0.07,-0.63,-9.92,24
14:37:16,-0.02,-0.68,-9.97,24
14:37:16,-0.10,-0.59,-10.03,24
14:37:16,-0.14,-0.78,-9.97,24
14:37:16,-0.08,-0.63,-9.87,24
14:37:16,0.02,-0.53,-9.91,24
14:37:16,-0.13,-0.56,-9.97,24
14:37:16,0.01,-0.66,-9.96,24
14:37:16,-0.14,-0.58,-10.00,24
14:37:16,-0.10,-0.46,-10.08,24
14:37:16,-0.05,-0.66,-9.97,24
14:37:16,-0.09,-0.64,-9.93,24
14:37:16,-0.10,-0.71,-9.94,24
14:37:16,-0.09,-0.63,-9.86,24
14:37:16,-0.12,-0.55,-9.97,24
14:37:16,-0.08,-0.68,-10.01,24
14:37:16,-0.12,-0.68,-9.99,24
14:37:16,-0.13,-0.67,-9.90,24
14:37:16,-0.11,-0.66,-9.98,24
14:37:16,0.02,-0.69,-9.94,24
14:37:16,0.07,-0.55,-10.05,24
14:37:16,-0.04,-0.64,-9.91,24
14:37:16,-0.07,-0.61,-9.95,24
14:37:16,-0.15,-0.54,-9.89,24
14:37:16,-0.07,-0.64,-10.10,24
14:37:16,-0.12,-0.56,-9.93,24
14:37:16,-0.05,-0.58,-9.99,24
14:37:16,-0.12,-0.54,-10.00,24
14:37:16,-0.10,-0.65,-9.95,24
14:37:16,-0.07,-0.67,-10.00,24
14:37:16,-0.08,-0.58,-9.85,24
14:37:16,-0.10,-0.66,-10.03,24
14:37:16,-0.11,-0.57,-10.04,24
14:37:16,0.07,-0.68,-9.97,24
14:37:16,-0.09,-0.66,-9.90,24
14:37:16,-0.05,-0.66,-10.02,24
14:37:16,-0.05,-0.65,-10.02,24
14:37:16,-0.09,-0.58,-9.88,24
14:37:16,-0.04,-0.67,-9.95,24
14:37:16,-0.14,-0.68,-10.04,24
14:37:16,-0.06,-0.62,-9.90,24
14:37:16,0.06,-0.70,-9.97,24
14:37:16,-0.04,-0.61,-9.96,24
14:37:16,-0.07,-0.71,-9.99,24
14:37:16,-0.11,-0.63,-10.01,24
14:37:16,0.01,-0.65,-10.00,24
14:37:16,-0.04,-0.57,-10.11,24
14:37:16,-0.02,-0.63,-9.96,24
14:37:16,-0.06,-0.58,-9.99,24
14:37:16,-0.05,-0.73,-10.04,24
14:37:16,0.03,-0.51,-9.88,24
14:37:16,-0.02,-0.65,-10.00,24
14:37:16,-0.16,-0.60,-9.99,24
14:37:16,-0.03,-0.70,-9.91,24
14:37:16,-0.10,-0.59,-10.02,24
14:37:16,-0.07,-0.73,-9.95,24
14:37:16,-0.16,-0.64,-9.99,24
14:37:16,-0.09,-0.56,-9.99,24
14:37:16,-0.04,-0.65,-9.90,24
14:37:16,-0.03,-0.60,-9.94,24
14:37:16,-0.11,-0.66,-9.95,24
14:37:16,-0.07,-0.58,-9.96,24
14:37:16,-0.03,-0.68,-9.99,24
14:37:16,-0.06,-0.60,-9.98,24
14:37:16,-0.03,-0.67,-9.96,24
14:37:17,-0.07,-0.71,-9.97,24
14:37:17,-0.11,-0.61,-10.00,24
14:37:17,0.03,-0.76,-9.99,24
14:37:17,-0.08,-1.15,-10.00,24
14:37:17,-0.07,-0.72,-9.97,24
14:37:17,-0.09,-0.56,-9.90,24
14:37:17,0.02,-0.57,-9.81,24
14:37:17,-0.09,-0.69,-9.84,24
14:37:17,-0.04,-0.63,-10.02,24
14:37:17,-0.09,-0.62,-9.99,24
14:37:17,-0.05,-0.64,-10.00,24
14:37:17,0.00,-0.57,-10.06,24
14:37:17,-0.02,-0.59,-10.01,24
14:37:17,-0.10,-0.64,-9.89,24
14:37:17,-0.07,-0.63,-10.10,24
14:37:17,-0.08,-0.77,-9.97,24
14:37:17,-0.04,-0.57,-9.96,24
14:37:17,-0.12,-0.64,-10.04,24
14:37:17,-0.02,-0.64,-9.95,24
14:37:17,-0.01,-0.58,-9.96,24
14:37:17,-0.04,-0.71,-9.95,24
14:37:17,-0.06,-0.66,-9.92,24
14:37:17,-0.21,-0.49,-9.87,24
14:37:17,-0.07,-0.61,-9.91,24
14:37:17,-0.03,-0.67,-9.89,24
14:37:17,0.00,-0.72,-9.93,24
14:37:17,-0.02,-0.55,-9.95,24
14:37:17,-0.04,-0.66,-9.82,24
14:37:17,-0.08,-0.61,-9.99,24
14:37:17,-0.08,-0.67,-9.96,24
14:37:17,-0.07,-0.70,-9.86,24
14:37:17,-0.16,-0.71,-9.95,24
14:37:17,-0.08,-0.59,-9.88,24
14:37:17,-0.07,-0.70,-9.95,24
14:37:17,-0.13,-0.61,-9.93,24
14:37:17,0.05,-0.54,-10.04,24
14:37:17,-0.07,-0.62,-9.90,24
14:37:17,-0.03,-0.62,-9.95,24
14:37:17,-0.05,-0.62,-9.96,24
14:37:17,-0.04,-0.70,-9.86,24
14:37:17,0.01,-0.73,-9.97,24
14:37:17,-0.07,-0.76,-9.91,24
14:37:17,0.01,-0.78,-9.87,24
14:37:17,-0.05,-0.61,-9.92,24
14:37:17,-0.08,-0.58,-10.04,24
14:37:17,-0.04,-0.71,-9.87,24
14:37:17,-0.09,-0.63,-9.95,24
14:37:17,-0.05,-0.57,-9.95,24
14:37:17,-0.11,-0.68,-9.97,24
14:37:17,-0.02,-0.58,-9.95,24
14:37:17,-0.08,-0.69,-9.92,24
14:37:17,-0.21,-0.57,-9.95,24
14:37:17,-0.09,-0.63,-9.96,24
14:37:17,-0.04,-0.61,-9.93,24
14:37:17,-0.06,-0.65,-9.90,24
14:37:17,-0.15,-0.64,-9.98,24
14:37:17,-0.08,-0.74,-9.94,24
14:37:17,0.00,-0.55,-10.01,24
14:37:17,0.08,-0.58,-9.96,24
14:37:17,0.03,-0.65,-9.93,24
14:37:17,0.03,-0.66,-9.98,24
14:37:17,-0.08,-0.60,-9.89,24
14:37:17,-0.01,-0.66,-9.90,24
14:37:17,-0.02,-0.67,-9.87,24
14:37:17,0.00,-0.62,-9.99,24
14:37:17,0.04,-0.66,-9.97,24
14:37:17,0.00,-0.62,-9.93,24
14:37:17,0.02,-0.63,-9.90,24
14:37:17,-0.03,-0.64,-9.92,24
14:37:17,-0.17,-0.58,-9.87,24
14:37:17,-0.11,-0.69,-9.97,24
14:37:17,-0.06,-0.70,-10.08,24
14:37:17,-0.07,-0.52,-9.97,24
14:37:17,-0.05,-0.65,-10.01,24
14:37:17,-0.13,-0.59,-9.96,24
14:37:17,-0.01,-0.71,-9.89,24
14:37:17,0.01,-0.66,-10.02,24
14:37:17,-0.14,-0.68,-9.99,24
14:37:17,0.01,-0.71,-9.92,24
14:37:17,-0.10,-0.65,-9.91,24
14:37:17,-0.09,-0.70,-9.90,24
14:37:17,0.05,-0.59,-9.93,24
14:37:17,-0.07,-0.58,-9.93,24
14:37:17,-0.11,-0.67,-9.93,24
14:37:17,0.02,-0.56,-10.02,24
14:37:17,-0.06,-0.72,-9.93,24
14:37:17,-0.04,-0.58,-9.91,24
14:37:17,-0.07,-0.64,-9.96,24
14:37:17,0.08,-0.66,-9.97,24
14:37:17,0.13,-0.62,-9.90,24
14:37:17,-0.04,-0.67,-9.94,24
14:37:17,-0.15,-0.60,-9.91,24
14:37:17,-0.05,-0.62,-9.94,24
14:37:17,-0.04,-0.67,-9.98,24
14:37:17,-0.01,-0.69,-10.02,24
14:37:17,-0.15,-0.71,-9.86,24
14:37:17,-0.16,-0.58,-9.96,24
14:37:17,0.05,-0.59,-9.91,24
14:37:17,-0.09,-0.64,-9.88,24
14:37:17,-0.05,-0.65,-9.96,24
14:37:17,-0.05,-0.71,-9.96,24
14:37:17,-0.09,-0.67,-10.01,24
14:37:17,-0.03,-0.67,-9.99,24
14:37:17,-0.04,-0.64,-9.94,24
14:37:17,-0.19,-0.63,-9.90,24
14:37:17,-0.03,-0.61,-9.93,24
14:37:17,-0.03,-0.57,-9.97,24
14:37:17,0.01,-0.67,-9.86,24
14:37:17,0.01,-0.68,-10.13,24
14:37:17,0.02,-0.63,-9.86,24
14:37:17,-0.15,-0.61,-9.93,24
14:37:17,-0.03,-0.61,-9.99,24
14:37:17,0.00,-0.61,-9.97,24
14:37:17,-0.10,-0.62,-9.95,24
14:37:17,-0.05,-0.66,-10.03,24
14:37:17,-0.07,-0.56,-10.08,24
14:37:17,-0.07,-0.59,-9.88,24
14:37:17,-0.17,-0.66,-10.01,24
14:37:17,-0.08,-0.65,-9.85,24
14:37:17,-0.12,-0.62,-9.90,24
14:37:17,-0.08,-0.68,-9.97,24
14:37:17,0.02,-0.67,-9.87,24
14:37:17,-0.13,-0.59,-10.00,24
14:37:17,-0.06,-0.64,-10.08,24
14:37:17,-0.11,-0.67,-10.05,24
14:37:17,-0.03,-0.55,-9.90,24
14:37:17,-0.01,-0.66,-10.06,24
14:37:17,-0.07,-0.66,-9.94,24
14:37:17,-0.08,-0.57,-9.99,24
14:37:17,-0.14,-0.66,-9.99,24
14:37:17,-0.10,-0.61,-9.98,24
14:37:17,-0.01,-0.64,-10.02,24
14:37:17,-0.02,-0.61,-9.97,24
14:37:17,0.00,-0.69,-9.91,24
14:37:17,-0.07,-0.64,-9.89,24
14:37:17,-0.07,-0.75,-9.92,24
14:37:17,-0.08,-0.58,-9.97,24
14:37:17,-0.05,-0.64,-10.05,24
14:37:17,-0.07,-0.64,-9.90,24
14:37:17,0.02,-0.59,-10.03,24
14:37:17,0.12,-0.56,-9.94,24
14:37:17,-0.05,-0.67,-9.84,24
14:37:17,-0.01,-0.64,-10.01,24
14:37:17,-0.07,-0.64,-9.96,24
14:37:17,-0.13,-0.73,-10.00,24
14:37:17,-0.18,-0.53,-9.92,24
14:37:17,-0.05,-0.51,-9.94,24
14:37:17,-0.08,-0.67,-9.89,24
14:37:17,0.02,-0.67,-9.99,24
14:37:17,0.02,-0.56,-9.98,24
14:37:17,-0.05,-0.65,-9.96,24
14:37:17,-0.04,-0.54,-9.98,24
14:37:17,-0.13,-0.57,-9.92,24
14:37:17,-0.10,-0.67,-9.98,24
14:37:17,-0.18,-0.71,-9.94,24
14:37:17,-0.08,-0.55,-10.01,24
14:37:17,-0.18,-0.58,-9.93,24
14:37:17,-0.04,-0.60,-9.92,24
14:37:17,-0.05,-0.58,-9.98,24
14:37:17,-0.02,-0.67,-9.93,24
14:37:17,-0.07,-0.70,-9.92,24
14:37:17,-0.10,-0.60,-9.99,24
14:37:17,-0.12,-0.61,-10.02,24
14:37:17,-0.01,-0.61,-9.97,24
14:37:17,-0.12,-0.55,-9.95,24
14:37:17,-0.08,-0.69,-9.97,24
14:37:17,-0.13,-0.66,-9.98,24
14:37:17,0.06,-0.73,-9.94,24
14:37:17,-0.04,-0.53,-9.85,24
14:37:17,-0.09,-0.69,-9.90,24
14:37:17,0.02,-0.56,-10.07,24
14:37:17,-0.08,-0.62,-9.97,24
14:37:17,-0.12,-0.63,-10.01,24
14:37:17,0.00,-0.59,-9.97,24
14:37:17,-0.19,-0.60,-10.04,24
14:37:17,-0.01,-0.74,-9.98,24
14:37:17,0.00,-0.74,-10.01,24
14:37:17,-0.10,-0.62,-9.94,24
14:37:17,-0.05,-0.62,-9.92,24
14:37:17,-0.02,-0.61,-10.00,24
14:37:17,-0.04,-0.68,-9.92,24
14:37:17,-0.14,-0.67,-9.94,24
14:37:17,0.03,-0.72,-9.90,24
14:37:17,-0.03,-0.58,-9.89,24
14:37:17,0.04,-0.64,-9.97,24
14:37:17,-0.09,-0.51,-9.98,24
14:37:17,-0.03,-0.58,-9.89,24
14:37:17,-0.07,-0.65,-10.09,24
14:37:17,-0.03,-0.68,-9.93,24
14:37:17,-0.05,-0.59,-9.99,24
14:37:17,-0.06,-0.66,-10.04,24
14:37:17,-0.08,-0.63,-10.06,24
14:37:17,-0.04,-0.52,-9.92,24
14:37:17,-0.08,-0.63,-9.99,24
14:37:17,-0.08,-0.63,-9.94,24
14:37:17,0.01,-0.64,-9.96,24
14:37:17,-0.01,-0.68,-9.97,24
14:37:17,-0.09,-0.66,-9.88,24
14:37:17,-0.06,-0.63,-9.96,24
14:37:17,-0.08,-0.51,-9.97,24
14:37:17,-0.02,-0.59,-10.00,24
14:37:17,-0.04,-0.68,-9.98,24
14:37:17,-0.06,-0.72,-9.99,24
14:37:17,-0.13,-0.64,-9.89,24
14:37:17,-0.11,-0.50,-9.94,24
14:37:17,-0.07,-0.73,-9.92,24
14:37:17,-0.08,-0.63,-9.91,24
14:37:17,0.04,-0.73,-9.95,24
14:37:17,-0.07,-0.64,-9.90,24
14:37:17,-0.04,-0.61,-10.00,24
14:37:17,0.08,-0.54,-9.99,24
14:37:17,-0.07,-0.60,-9.92,24
14:37:17,-0.02,-0.72,-9.90,24
14:37:17,0.01,-0.57,-9.95,24
14:37:17,-0.26,-0.71,-10.01,24
14:37:17,-0.08,-0.65,-9.99,24
14:37:17,0.00,-0.68,-9.91,24
14:37:17,0.00,-0.79,-9.87,24
14:37:17,-0.18,-0.69,-9.90,24
14:37:17,0.01,-0.67,-10.04,24
14:37:17,-0.10,-0.49,-9.98,24
14:37:17,-0.13,-0.59,-10.05,24
14:37:17,-0.11,-0.68,-9.94,24
14:37:17,-0.01,-0.60,-9.98,24
14:37:17,-0.10,-0.49,-10.03,24
14:37:17,-0.14,-0.68,-9.95,24
14:37:17,-0.06,-0.60,-9.97,24
14:37:17,-0.08,-0.57,-9.83,24
14:37:17,-0.06,-0.64,-9.93,24
14:37:17,-0.08,-0.67,-9.86,24
14:37:17,-0.16,-0.47,-9.95,24
14:37:17,-0.10,-0.58,-9.94,24
14:37:17,-0.08,-0.76,-10.04,24
14:37:17,0.00,-0.66,-10.02,24
14:37:18,-0.07,-0.71,-9.98,24
14:37:18,-0.08,-0.61,-9.97,24
14:37:18,-0.04,-0.68,-9.92,24
14:37:18,-0.12,-0.68,-9.98,24
14:37:18,-0.06,-0.59,-9.99,24
14:37:18,-0.09,-0.71,-9.96,24
14:37:18,-0.09,-0.64,-9.94,24
14:37:18,-0.07,-0.66,-9.95,24
14:37:18,-0.10,-0.62,-9.98,24
14:37:18,0.02,-0.61,-9.97,24
14:37:18,-0.12,-0.66,-10.05,24
14:37:18,-0.03,-0.68,-9.97,24
14:37:18,-0.12,-0.73,-9.94,24
14:37:18,-0.07,-0.63,-9.89,24
14:37:18,-0.13,-0.55,-9.95,24
14:37:18,-0.06,-0.60,-9.90,24
14:37:18,-0.12,-0.70,-9.92,24
14:37:18,-0.10,-0.71,-9.87,24
14:37:18,-0.08,-0.69,-9.97,24
14:37:18,-0.08,-0.65,-9.98,24
14:37:18,-0.13,-0.69,-10.06,24
14:37:18,0.05,-0.73,-10.00,24
14:37:18,-0.04,-0.66,-9.93,24
14:37:18,-0.17,-0.64,-10.06,24
14:37:18,0.04,-0.57,-10.01,24
14:37:18,-0.17,-0.63,-9.88,24
14:37:18,-0.01,-0.60,-9.90,24
14:37:18,-0.04,-0.66,-10.01,24
14:37:18,-0.05,-0.64,-9.94,24
14:37:18,-0.08,-0.65,-9.84,24
14:37:18,-0.10,-0.62,-9.94,24
14:37:18,-0.06,-0.64,-10.00,24
14:37:18,-0.02,-0.64,-9.97,24
14:37:18,-0.05,-0.63,-9.87,24
14:37:18,0.03,-0.67,-9.92,24
14:37:18,-0.07,-0.67,-9.87,24
14:37:18,-0.01,-0.54,-9.97,24
14:37:18,-0.07,-0.69,-9.99,24
14:37:18,-0.03,-0.76,-9.82,24
14:37:18,-0.01,-0.62,-10.05,24
14:37:18,-0.05,-0.64,-10.01,24
14:37:18,-0.04,-0.62,-9.86,24
14:37:18,-0.09,-0.72,-9.86,24
14:37:18,-0.08,-0.55,-10.05,24
14:37:18,-0.07,-0.69,-9.91,24
14:37:18,-0.11,-0.64,-9.90,24
14:37:18,-0.08,-0.58,-10.03,24
14:37:18,-0.14,-0.66,-9.91,24
14:37:18,-0.10,-0.60,-9.98,24
14:37:18,-0.07,-0.71,-10.05,24
14:37:18,-0.04,-0.64,-9.99,24
14:37:18,-0.09,-0.60,-9.99,24
14:37:18,-0.11,-0.63,-9.93,24
14:37:18,0.03,-0.65,-9.95,24
14:37:18,-0.05,-0.61,-10.01,24
14:37:18,-0.06,-0.75,-10.03,24
14:37:18,-0.12,-0.59,-9.93,24
14:37:18,-0.05,-0.71,-9.92,24
14:37:18,0.03,-0.73,-10.00,24
14:37:18,-0.10,-0.68,-9.98,24
14:37:18,0.02,-0.63,-9.97,24
14:37:18,-0.03,-0.63,-10.01,24
14:37:18,-0.09,-0.66,-9.96,24
14:37:18,-0.06,-0.76,-9.98,24
14:37:18,0.03,-0.58,-9.96,24
14:37:18,-0.18,-0.62,-10.04,24
14:37:18,-0.08,-0.71,-9.88,24
14:37:18,-0.07,-0.67,-10.04,24
14:37:18,-0.03,-0.70,-10.07,24
14:37:18,-0.06,-0.73,-10.00,24
14:37:18,-0.01,-0.68,-9.95,24
14:37:18,-0.11,-0.67,-9.98,24
14:37:18,-0.04,-0.67,-9.91,24
14:37:18,-0.08,-0.52,-9.90,24
14:37:18,-0.02,-0.64,-9.93,24
14:37:18,-0.04,-0.69,-9.83,24
14:37:18,0.07,-0.69,-9.96,24
14:37:18,-0.09,-0.70,-9.99,24
14:37:18,0.05,-0.69,-9.92,24
14:37:18,-0.15,-0.61,-9.93,24
14:37:18,-0.06,-0.66,-9.87,24
14:37:18,-0.09,-0.66,-9.92,24
14:37:18,-0.03,-0.51,-9.98,24
14:37:18,-0.06,-0.60,-9.91,24
14:37:18,-0.06,-0.61,-9.90,24
14:37:18,-0.14,-0.72,-9.85,24
14:37:18,-0.08,-0.64,-9.94,24
14:37:18,-0.02,-0.69,-9.97,24
14:37:18,-0.01,-0.57,-9.94,24
14:37:18,0.00,-0.68,-9.86,24
14:37:18,-0.06,-0.60,-9.89,24
14:37:18,-0.14,-0.63,-9.96,24
14:37:18,-0.06,-0.64,-9.95,24
14:37:18,-0.06,-0.68,-9.99,24
14:37:18,-0.02,-0.69,-9.97,24
14:37:18,-0.08,-0.65,-9.89,24
14:37:18,0.00,-0.68,-9.94,24
14:37:18,0.02,-0.64,-9.99,24
14:37:18,-0.08,-0.60,-9.95,24
14:37:18,-0.16,-0.64,-9.93,24
14:37:18,-0.04,-0.56,-9.92,24
14:37:18,-0.08,-0.63,-10.02,24
14:37:18,-0.01,-0.65,-9.92,24
14:37:18,-0.08,-0.54,-9.91,24
14:37:18,-0.16,-0.57,-10.05,24
14:37:18,0.05,-0.67,-10.01,24
14:37:18,-0.02,-0.72,-9.97,24
14:37:18,-0.08,-0.66,-10.05,24
14:37:18,-0.02,-0.68,-9.92,24
14:37:18,0.02,-0.60,-9.97,24
14:37:18,-0.12,-0.54,-10.04,24
14:37:18,-0.03,-0.60,-9.96,24
14:37:18,0.00,-0.62,-9.90,24
14:37:18,-0.07,-0.70,-9.94,24
14:37:18,-0.10,-0.60,-9.94,24
14:37:18,-0.05,-0.67,-9.97,24
14:37:18,-0.09,-0.58,-10.04,24
14:37:18,-0.18,-0.59,-9.96,24
14:37:18,-0.14,-0.73,-9.95,24
14:37:18,-0.10,-0.60,-9.93,24
14:37:18,-0.07,-0.59,-9.90,24
14:37:18,0.01,-0.62,-9.94,24
14:37:18,-0.03,-0.64,-9.92,24
14:37:18,0.07,-0.78,-9.96,24
14:37:18,-0.17,-0.64,-9.94,24
14:37:18,-0.04,-0.65,-9.91,24
14:37:18,0.04,-0.64,-10.01,24
14:37:18,-0.08,-0.66,-9.93,24
14:37:18,-0.05,-0.61,-9.95,24
14:37:18,-0.12,-0.64,-9.91,24
14:37:18,0.00,-0.72,-10.05,24
14:37:18,0.05,-0.70,-9.93,24
14:37:18,0.05,-0.61,-9.96,24
14:37:18,0.00,-0.62,-9.99,24
14:37:18,-0.05,-0.63,-9.99,24
14:37:18,-0.09,-0.60,-9.94,24
14:37:18,-0.02,-0.66,-9.88,24
14:37:18,-0.05,-0.61,-9.97,24
14:37:18,-0.05,-0.66,-9.97,24
14:37:18,0.01,-0.60,-9.85,24
14:37:18,-0.02,-0.62,-9.88,24
14:37:18,-0.09,-0.57,-9.97,24
14:37:18,0.00,-0.69,-9.91,24
14:37:18,-0.08,-0.61,-9.98,24
14:37:18,0.00,-0.67,-9.94,24
14:37:18,-0.05,-0.68,-9.89,24
14:37:18,-0.08,-0.70,-9.88,24
14:37:18,-0.04,-0.63,-9.90,24
14:37:18,-0.10,-0.61,-10.02,24
14:37:18,-0.08,-0.63,-9.91,24
14:37:18,-0.05,-0.65,-9.93,24
14:37:18,-0.08,-0.60,-10.03,24
14:37:18,-0.04,-0.78,-9.93,24
14:37:18,-0.04,-0.69,-10.02,24
14:37:18,0.03,-0.65,-9.88,24
14:37:18,-0.03,-0.61,-9.93,24
14:37:18,-0.10,-0.70,-9.97,24
14:37:18,-0.04,-0.64,-9.93,24
14:37:18,-0.03,-0.67,-9.99,24
14:37:18,-0.04,-0.73,-9.96,24
14:37:18,-0.09,-0.67,-9.89,24
14:37:18,-0.07,-0.48,-9.87,24
14:37:18,0.05,-0.72,-9.90,24
14:37:18,-0.03,-0.64,-9.95,24
14:37:18,-0.03,-0.72,-9.94,24
14:37:18,-0.01,-0.58,-9.97,24
14:37:18,-0.08,-0.55,-9.97,24
14:37:18,-0.03,-0.53,-9.94,24
14:37:18,-0.04,-0.51,-9.91,24
14:37:18,-0.06,-0.64,-9.85,24
14:37:18,0.02,-0.62,-10.02,24
14:37:18,-0.03,-0.70,-9.98,24
14:37:18,-0.03,-0.62,-10.04,24
14:37:18,-0.09,-0.64,-10.00,24
14:37:18,-0.06,-0.57,-9.95,24
14:37:18,-0.14,-0.62,-9.99,24
14:37:18,-0.03,-0.54,-10.06,24
14:37:18,-0.04,-0.59,-9.98,24
14:37:18,-0.04,-0.60,-9.83,24
14:37:18,-0.04,-0.67,-9.94,24
14:37:18,-0.12,-0.64,-9.97,24
14:37:18,0.01,-0.71,-9.78,24
14:37:18,-0.04,-0.63,-9.98,24
14:37:18,-0.04,-0.60,-9.94,24
14:37:18,0.60,-0.71,-10.01,24
14:37:18,-0.03,-0.70,-9.98,24
14:37:18,-0.08,-0.63,-9.83,24
14:37:18,-0.12,-0.64,-10.00,24
14:37:18,0.03,-0.53,-9.92,24
14:37:18,-0.05,-0.64,-9.88,24
14:37:18,-0.11,-0.67,-9.99,24
14:37:18,-0.01,-0.67,-9.92,24
14:37:18,-0.07,-0.75,-9.94,24
14:37:18,-0.03,-0.59,-9.91,24
14:37:18,-0.04,-0.80,-9.86,24
14:37:18,-0.22,-0.69,-9.90,24
14:37:18,-0.10,-0.65,-10.03,24
14:37:18,-0.02,-0.63,-9.86,24
14:37:18,-0.07,-0.67,-9.93,24
14:37:18,-0.06,-0.54,-9.88,24
14:37:18,-0.02,-0.56,-9.93,24
14:37:18,-0.05,-0.62,-9.99,24
14:37:18,-0.05,-0.69,-9.93,24
14:37:18,-0.05,-0.61,-9.88,24
14:37:18,-0.10,-0.73,-9.87,24
14:37:18,-0.04,-0.61,-9.91,24
14:37:18,-0.13,-0.63,-9.95,24
14:37:18,-0.01,-0.65,-10.03,24
14:37:18,-0.06,-0.63,-9.92,24
14:37:18,-0.07,-0.67,-10.01,24
14:37:18,0.03,-0.64,-10.01,24
14:37:18,-0.08,-0.69,-9.94,24
14:37:18,-0.01,-0.57,-10.00,24
14:37:18,-0.14,-0.59,-10.01,24
14:37:18,-0.09,-0.65,-10.05,24
14:37:18,-0.14,-0.72,-10.08,24
14:37:18,-0.01,-0.71,-9.91,24
14:37:18,-0.02,-0.63,-9.89,24
14:37:18,-0.01,-0.65,-10.01,24
14:37:18,0.03,-0.72,-10.07,24
14:37:18,-0.04,-0.66,-10.03,24
14:37:18,-0.01,-0.76,-9.89,24
14:37:18,-0.12,-0.64,-9.98,24
14:37:18,-0.08,-0.65,-9.98,24
14:37:18,-0.15,-0.64,-9.97,24
14:37:18,-0.11,-0.76,-9.91,24
14:37:18,-0.04,-0.57,-9.96,24
14:37:18,-0.17,-0.61,-9.84,24
14:37:18,-0.02,-0.70,-9.83,24
14:37:18,-0.01,-0.66,-9.93,24
14:37:19,-0.11,-0.58,-10.00,24
14:37:19,-0.04,-0.62,-9.97,24
14:37:19,0.00,-0.57,-10.03,24
14:37:19,-0.07,-0.65,-9.99,24
14:37:19,-0.04,-0.66,-10.00,24
14:37:19,-0.12,-0.67,-10.02,24
14:37:19,-0.14,-0.73,-9.96,24
14:37:19,-0.02,-0.53,-9.91,24
14:37:19,-0.12,-0.63,-9.93,24
14:37:19,-0.09,-0.65,-9.99,24
14:37:19,-0.03,-0.57,-9.89,24
14:37:19,-0.07,-0.64,-9.86,24
14:37:19,0.04,-0.60,-10.03,24
14:37:19,-0.12,-0.66,-9.92,24
14:37:19,-0.06,-0.73,-9.95,24
14:37:19,-0.13,-0.67,-9.93,24
14:37:19,-0.14,-0.66,-9.92,24
14:37:19,-0.03,-0.62,-10.00,24
14:37:19,0.04,-0.73,-10.05,24
14:37:19,0.00,-0.62,-9.88,24
14:37:19,-0.05,-0.64,-9.93,24
14:37:19,-0.07,-0.57,-9.94,24
14:37:19,-0.15,-0.57,-9.95,24
14:37:19,-0.11,-0.59,-9.97,24
14:37:19,-0.15,-0.56,-9.97,24
14:37:19,-0.11,-0.56,-9.92,24
14:37:19,-0.03,-0.73,-9.89,24
14:37:19,-0.21,-0.60,-9.97,24
14:37:19,0.07,-0.59,-10.01,24
14:37:19,-0.12,-0.65,-9.96,24
14:37:19,-0.13,-0.61,-9.93,24
14:37:19,-0.03,-0.70,-10.00,24
14:37:19,-0.10,-0.63,-9.99,24
14:37:19,-0.15,-0.62,-10.03,24
14:37:19,-0.10,-0.67,-9.96,24
14:37:19,-0.09,-0.56,-9.92,24
14:37:19,-0.05,-0.73,-10.01,24
14:37:19,-0.10,-0.65,-10.03,24
14:37:19,-0.04,-0.62,-9.91,24
14:37:19,-0.07,-0.64,-10.04,24
14:37:19,-0.06,-0.61,-9.97,24
14:37:19,-0.06,-0.60,-9.95,24
14:37:19,-0.08,-0.70,-9.94,24
14:37:19,-0.08,-0.64,-9.98,24
14:37:19,-0.07,-0.59,-10.01,24
14:37:19,-0.08,-0.74,-9.88,24
14:37:19,0.04,-0.66,-9.83,24
14:37:19,-0.06,-0.76,-9.90,24
14:37:19,0.00,-0.65,-9.92,24
14:37:19,-0.05,-0.66,-9.94,24
14:37:19,-0.14,-0.61,-9.93,24
14:37:19,0.05,-0.64,-9.96,24
14:37:19,-0.07,-0.64,-9.96,24
14:37:19,-0.08,-0.69,-9.92,24
14:37:19,-0.05,-0.64,-9.95,24
14:37:19,-0.07,-0.60,-9.94,24
14:37:19,-0.16,-0.65,-9.96,24
14:37:19,-0.18,-0.53,-10.02,24
14:37:19,-0.04,-0.66,-10.11,24
14:37:19,0.02,-0.64,-10.04,24
14:37:19,-0.10,-0.63,-9.87,24
14:37:19,-0.10,-0.65,-9.90,24
14:37:19,-0.08,-0.71,-9.90,24
14:37:19,-0.02,-0.64,-9.98,24
14:37:19,-0.04,-0.67,-10.00,24
14:37:19,-0.10,-0.62,-9.89,24
14:37:19,-0.05,-0.64,-9.96,24
14:37:19,-0.07,-0.59,-9.88,24
14:37:19,0.00,-0.68,-9.92,24
14:37:19,-0.07,-0.65,-9.98,24
14:37:19,-0.02,-0.63,-9.94,24
14:37:19,-0.01,-0.60,-9.97,24
14:37:19,0.00,-0.63,-9.98,24
14:37:19,-0.01,-0.63,-9.89,24
14:37:19,-0.09,-0.68,-9.90,24
14:37:19,-0.21,-0.56,-9.99,24
14:37:19,-0.04,-0.71,-9.96,24
14:37:19,-0.12,-0.69,-9.97,24
14:37:19,0.00,-0.64,-9.99,24
14:37:19,0.01,-0.72,-10.09,24
14:37:19,-0.03,-0.55,-9.97,24
14:37:19,-0.06,-0.57,-9.93,24
14:37:19,0.02,-0.64,-10.00,24
14:37:19,0.00,-0.75,-9.88,24
14:37:19,-0.06,-0.64,-9.90,24
14:37:19,-0.01,-0.64,-9.98,24
14:37:19,-0.02,-0.71,-9.89,24
14:37:19,-0.02,-0.71,-10.00,24
14:37:19,-0.10,-0.62,-10.01,24
14:37:19,0.01,-0.66,-9.85,24
14:37:19,-0.10,-0.59,-9.90,24
14:37:19,-0.07,-0.67,-9.93,24
14:37:19,-0.06,-0.67,-9.96,24
14:37:19,0.03,-0.60,-9.96,24
14:37:19,-0.06,-0.52,-9.93,24
14:37:19,-0.04,-0.59,-10.04,24
14:37:19,-0.08,-0.64,-9.94,24
14:37:19,-0.04,-0.67,-9.98,24
14:37:19,-0.09,-0.65,-10.02,24
14:37:19,-0.12,-0.61,-9.98,24
14:37:19,-0.17,-0.61,-9.96,24
14:37:19,0.02,-0.63,-9.96,24
14:37:19,-0.04,-0.57,-9.96,24
14:37:19,-0.11,-0.61,-9.86,24
14:37:19,-0.12,-0.62,-9.91,24
14:37:19,-0.01,-0.65,-9.89,24
14:37:19,-0.12,-0.67,-9.99,24
14:37:19,-0.10,-0.67,-9.96,24
14:37:19,-0.17,-0.70,-9.95,24
14:37:19,-0.07,-0.66,-9.91,24
14:37:19,-0.06,-0.66,-10.13,24
14:37:19,0.02,-0.62,-10.49,24
14:37:19,-0.07,-0.77,-10.05,24
14:37:19,-0.05,-0.64,-10.02,24
14:37:19,-0.19,-0.60,-10.02,24
14:37:19,-0.08,-0.57,-9.77,24
14:37:19,-0.04,-0.68,-9.91,24
14:37:19,0.02,-0.46,-10.05,24
14:37:19,-0.05,-0.56,-10.01,24
14:37:19,-0.15,-0.68,-10.02,24
14:37:19,-0.11,-0.67,-9.97,24
14:37:19,-0.02,-0.67,-9.93,24
14:37:19,0.01,-0.57,-9.96,24
14:37:19,-0.02,-0.69,-9.98,24
14:37:19,-0.02,-0.66,-9.85,24
14:37:19,-0.05,-0.57,-10.05,24
14:37:19,-0.03,-0.67,-10.01,24
14:37:19,-0.09,-0.69,-9.92,24
14:37:19,-0.08,-0.70,-9.99,24
14:37:19,-0.03,-0.63,-10.13,24
14:37:19,-0.21,-0.75,-9.87,24
14:37:19,-0.01,-0.79,-10.03,24
14:37:19,0.02,-0.65,-10.05,24
14:37:19,-0.02,-0.55,-9.98,24
14:37:19,-0.10,-0.73,-9.99,24
14:37:19,-0.10,-0.66,-10.01,24
14:37:19,0.02,-0.64,-9.91,24
14:37:19,-0.09,-0.67,-9.85,24
14:37:19,-0.05,-0.67,-9.94,24
14:37:19,-0.11,-0.76,-10.00,24
14:37:19,-0.10,-0.70,-9.85,24
14:37:19,-0.09,-0.59,-10.00,24
14:37:19,-0.02,-0.72,-9.91,24
14:37:19,-0.04,-0.73,-9.96,24
14:37:19,-0.05,-0.69,-9.88,24
14:37:19,-0.08,-0.74,-9.97,24
14:37:19,-0.13,-0.58,-9.93,24
14:37:19,-0.11,-0.64,-10.00,24
14:37:19,0.03,-0.69,-9.94,24
14:37:19,0.04,-0.59,-9.97,24
14:37:19,0.08,-0.60,-10.01,24
14:37:19,-0.06,-0.63,-9.99,24
14:37:19,-0.08,-0.67,-9.96,24
14:37:19,-0.07,-0.60,-9.93,24
14:37:19,-0.07,-0.62,-10.00,24
14:37:19,0.02,-0.75,-10.01,24
14:37:19,-0.03,-0.57,-9.96,24
14:37:19,-0.08,-0.58,-9.96,24
14:37:19,0.03,-0.65,-10.08,24
14:37:19,-0.13,-0.60,-10.02,24
14:37:19,-0.05,-0.59,-9.98,24
14:37:19,-0.12,-0.64,-9.91,24
14:37:19,-0.07,-0.68,-9.88,24
14:37:19,-0.04,-0.69,-9.95,24
14:37:19,-0.03,-0.59,-10.00,24
14:37:19,-0.01,-0.73,-9.89,24
14:37:19,-0.01,-0.70,-9.98,24
14:37:19,-0.01,-0.69,-9.96,24
14:37:19,-0.07,-0.68,-9.93,24
14:37:19,-0.18,-0.68,-10.02,24
14:37:19,-0.09,-0.63,-10.00,24
14:37:19,0.01,-0.63,-10.00,24
14:37:19,-0.20,-0.52,-9.96,24
14:37:19,-0.15,-0.61,-10.00,24
14:37:19,-0.07,-0.62,-9.97,24
14:37:19,-0.09,-0.73,-9.95,24
14:37:19,-0.09,-0.67,-9.98,24
14:37:19,-0.06,-0.62,-9.90,24
14:37:19,-0.05,-0.72,-9.95,24
14:37:19,-0.06,-0.66,-9.96,24
14:37:19,-0.14,-0.65,-9.94,24
14:37:19,0.00,-0.58,-9.91,24
14:37:19,-0.10,-0.56,-9.96,24
14:37:19,-0.06,-0.57,-9.89,24
14:37:19,-0.08,-0.51,-9.97,24
14:37:19,0.00,-0.64,-9.88,24
14:37:19,-0.17,-0.68,-9.97,24
14:37:19,0.01,-0.65,-10.08,24
14:37:19,-0.02,-0.58,-9.98,24
14:37:19,-0.09,-0.59,-10.00,24
14:37:19,-0.12,-0.66,-9.99,24
14:37:19,0.03,-0.66,-9.93,24
14:37:19,-0.05,-0.74,-10.01,24
14:37:19,-0.10,-0.69,-9.93,24
14:37:19,-0.02,-0.71,-9.94,24
14:37:19,-0.03,-0.65,-9.99,24
14:37:19,-0.10,-0.55,-10.05,24
14:37:19,-0.09,-0.55,-9.93,24
14:37:19,0.00,-0.59,-9.97,24
14:37:19,-0.02,-0.62,-9.97,24
14:37:19,-0.06,-0.59,-9.95,24
14:37:19,-0.12,-0.67,-9.95,24
14:37:19,-0.10,-0.61,-9.98,24
14:37:19,-0.08,-0.66,-9.96,24
14:37:19,0.01,-0.67,-9.91,24
14:37:19,-0.03,-0.68,-9.83,24
14:37:19,-0.12,-0.58,-9.87,24
14:37:19,-0.07,-0.62,-9.98,24
14:37:19,-0.06,-0.64,-9.96,24
14:37:19,0.09,-0.62,-10.00,24
14:37:19,-0.14,-0.56,-9.99,24
14:37:19,-0.01,-0.52,-9.99,24
14:37:19,-0.01,-0.58,-9.98,24
14:37:19,0.02,-0.59,-9.90,24
14:37:19,-0.03,-0.63,-9.88,24
14:37:19,0.00,-0.63,-10.00,24
14:37:19,-0.09,-0.63,-9.89,24
14:37:19,-0.09,-0.67,-9.92,24
14:37:19,-0.06,-0.59,-10.00,24
14:37:19,0.07,-0.65,-9.93,24
14:37:19,-0.13,-0.66,-9.92,24
14:37:19,-0.08,-0.70,-10.05,24
14:37:19,-0.04,-0.64,-9.92,24
14:37:19,-0.03,-0.72,-9.92,24
14:37:19,-0.13,-0.65,-9.88,24
14:37:19,0.09,-0.73,-9.90,24
14:37:19,-0.07,-0.66,-9.96,24
14:37:19,0.02,-0.67,-9.96,24
14:37:19,-0.01,-0.68,-10.04,24
14:37:19,-0.02,-0.64,-10.00,24
14:37:19,-0.09,-0.55,-9.91,24
14:37:19,-0.03,-0.63,-9.90,24
14:38:31,-0.12,-0.57,-9.97,24.1
14:38:31,-0.04,-0.65,-10.00,24.1
14:38:31,-0.05,-0.65,-9.91,24.1
14:38:31,-0.07,-0.62,-10.00,24.1
14:38:31,-0.05,-0.58,-9.95,24.1
14:38:31,-0.09,-0.60,-9.91,24.1
14:38:31,-0.07,-0.55,-9.89,24.1
14:38:31,-0.15,-0.55,-9.93,24.1
14:38:31,-0.04,-0.64,-9.96,24.1
14:38:31,-0.11,-0.68,-9.98,24.1
14:38:31,-0.18,-0.62,-9.99,24.1
14:38:31,-0.03,-0.72,-9.85,24.1
14:38:31,-0.01,-0.64,-9.91,24.1
14:38:31,-0.02,-0.59,-9.98,24.1
14:38:31,-0.02,-0.66,-9.99,24.1
14:38:31,-0.02,-0.59,-9.88,24.1
14:38:31,-0.06,-0.46,-9.89,24.1
14:38:31,0.01,-0.69,-9.94,24.1
14:38:31,-0.16,-0.61,-9.96,24.1
14:38:31,-0.11,-0.57,-9.93,24.1
14:38:31,-0.03,-0.67,-9.95,24.1
14:38:31,-0.10,-0.59,-9.97,24.1
14:38:31,-0.09,-0.57,-9.95,24.1
14:38:31,-0.14,-0.59,-9.90,24.1
14:38:31,-0.13,-0.64,-9.85,24.1
14:38:31,-0.03,-0.69,-10.01,24.1
14:38:31,-0.03,-0.64,-9.84,24.1
14:38:31,-0.11,-0.79,-9.89,24.1
14:38:31,0.10,-0.66,-9.99,24.1
14:38:31,-0.04,-0.66,-10.05,24.1
14:38:31,-0.04,-0.64,-9.93,24.1
14:38:31,0.02,-0.57,-10.00,24.1
14:38:31,-0.04,-0.59,-9.97,24.1
14:38:31,-0.11,-0.67,-9.98,24.1
14:38:31,-0.11,-0.69,-9.85,24.1
14:38:31,-0.13,-0.70,-9.87,24.1
14:38:31,-0.05,-0.58,-10.07,24.1
14:38:31,0.06,-0.65,-9.91,24.1
14:38:31,-0.01,-0.59,-9.97,24.1
14:38:31,-0.06,-0.67,-9.89,24.1
14:38:31,-0.09,-0.63,-9.85,24.1
14:38:31,0.00,-0.75,-9.97,24.1
14:38:31,-0.05,-0.65,-9.92,24.1
14:38:31,0.03,-0.65,-9.98,24.1
14:38:31,0.00,-0.58,-9.93,24.1
14:38:31,-0.10,-0.68,-9.97,24.1
14:38:31,-0.05,-0.68,-9.94,24.1
14:38:31,-0.07,-0.75,-9.95,24.1
14:38:31,-0.14,-0.70,-9.93,24.1
14:38:31,-0.14,-0.53,-10.01,24.1
14:38:31,-0.13,-0.58,-9.92,24.1
14:38:31,-0.10,-0.60,-9.92,24.1
14:38:31,-0.13,-0.66,-9.98,24.1
14:38:31,0.03,-0.64,-10.01,24.1
14:38:31,-0.07,-0.67,-9.91,24.1
14:38:31,-0.01,-0.64,-9.92,24.1
14:38:31,0.04,-0.61,-9.89,24.1
14:38:31,-0.10,-0.58,-9.96,24.1
14:38:31,-0.06,-0.59,-10.01,24.1
14:38:31,0.01,-0.57,-9.92,24.1
14:38:31,0.02,-0.55,-10.01,24.1
14:38:31,-0.03,-0.67,-10.02,24.1
14:38:31,-0.05,-0.65,-9.31,24.1
14:38:31,-0.02,-0.66,-9.94,24.1
14:38:31,-0.07,-0.03,-9.88,24.1
14:38:31,-0.04,-0.07,-9.91,24.1
14:38:31,-0.06,-0.58,-9.99,24.1
14:38:31,-0.05,-0.58,-9.85,24.1
14:38:31,-0.12,-0.68,-9.81,24.1
14:38:31,-0.04,-0.59,-9.93,24.1
14:38:31,-0.10,-0.53,-9.79,24.1
14:38:31,0.02,-0.69,-9.93,24.1
14:38:31,-0.09,-0.61,-9.98,24.1
14:38:31,-0.02,-0.71,-9.97,24.1
14:38:31,-0.02,-0.61,-9.92,24.1
14:38:31,-0.06,-0.60,-10.03,24.1
14:38:31,-0.08,-0.59,-9.95,24.1
14:38:31,-0.08,-0.59,-9.98,24.1
14:38:31,-0.14,-0.67,-9.97,24.1
14:38:31,-0.07,-0.62,-9.94,24.1
14:38:31,-0.01,-0.68,-9.95,24.1
14:38:31,0.00,-0.62,-9.91,24.1
14:38:31,0.01,-0.67,-9.94,24.1
14:38:31,0.02,-0.59,-9.99,24.1
14:38:31,-0.13,-0.67,-9.94,24.1
14:38:31,-0.08,-0.74,-10.00,24.1
14:38:31,-0.05,-0.70,-9.94,24.1
14:38:31,-0.11,-0.66,-9.94,24.1
14:38:31,-0.04,-0.61,-9.87,24.1
14:38:31,0.01,-0.59,-9.91,24.1
14:38:31,-0.08,-0.61,-9.94,24.1
14:38:31,-0.13,-0.72,-10.04,24.1
14:38:31,-0.05,-0.75,-9.96,24.1
14:38:31,-0.08,-0.65,-10.01,24.1
14:38:31,-0.07,-0.60,-9.93,24.1
14:38:31,-0.13,-0.60,-9.88,24.1
14:38:31,-0.06,-0.72,-9.96,24.1
14:38:31,-0.13,-0.70,-9.95,24.1
14:38:31,-0.06,-0.62,-9.91,24.1
14:38:32,-0.08,-0.50,-9.90,24.1
14:38:32,-0.04,-0.67,-9.99,24.1
14:38:32,0.00,-0.58,-9.96,24.1
14:38:32,-0.18,-0.62,-9.98,24.1
14:38:32,-0.07,-0.60,-10.02,24.1
14:38:32,0.03,-0.61,-9.89,24.1
14:38:32,-0.05,-0.69,-9.93,24.1
14:38:32,-0.06,-0.61,-9.91,24.1
14:38:32,0.00,-0.62,-9.91,24.1
14:38:32,-0.02,-0.50,-9.99,24.1
14:38:32,-0.03,-0.69,-10.00,24.1
14:38:32,-0.08,-0.65,-9.86,24.1
14:38:32,-0.05,-0.68,-10.02,24.1
14:38:32,-0.12,-0.54,-9.96,24.1
14:38:32,-0.01,-0.71,-9.93,24.1
14:38:32,0.02,-0.68,-9.90,24.1
14:38:32,-0.16,-0.61,-10.01,24.1
14:38:32,-0.12,-0.60,-10.04,24.1
14:38:32,-0.06,-0.69,-9.90,24.1
14:38:32,-0.06,-0.67,-9.92,24.1
14:38:32,-0.09,-0.66,-10.01,24.1
14:38:32,-0.06,-0.64,-9.94,24.1
14:38:32,-0.07,-0.64,-9.97,24.1
14:38:32,-0.20,-0.59,-10.00,24.1
14:38:32,-0.01,-0.69,-9.92,24.1
14:38:32,0.04,-0.64,-9.99,24.1
14:38:32,-0.14,-0.57,-10.01,24.1
14:38:32,-0.08,-0.61,-10.09,24.1
14:38:32,-0.08,-0.56,-10.01,24.1
14:38:32,-0.01,-0.65,-9.93,24.1
14:38:32,-0.01,-0.68,-9.92,24.1
14:38:32,-0.17,-0.71,-9.89,24.1
14:38:32,-0.05,-0.59,-9.88,24.1
14:38:32,-0.05,-0.55,-9.94,24.1
14:38:32,-0.13,-0.46,-9.97,24.1
14:38:32,-0.04,-0.58,-9.91,24.1
14:38:32,0.01,-0.61,-9.88,24.1
14:38:32,-0.07,-0.64,-9.95,24.1
14:38:32,-0.14,-0.58,-9.97,24.1
14:38:32,-0.05,-0.65,-10.01,24.1
14:38:32,0.01,-0.51,-9.93,24.1
14:38:32,0.02,-0.65,-9.92,24.1
14:38:32,0.01,-0.65,-10.07,24.1
14:38:32,-0.03,-0.65,-10.00,24.1
14:38:32,-0.08,-0.62,-9.91,24.1
14:38:32,0.05,-0.61,-9.88,24.1
14:38:32,-0.05,-0.71,-9.90,24.1
14:38:32,-0.05,-0.62,-9.89,24.1
14:38:32,-0.04,-0.61,-9.86,24.1
14:38:32,0.03,-0.59,-9.91,24.1
14:38:32,-0.15,-0.63,-9.99,24.1
14:38:32,0.04,-0.62,-9.90,24.1
14:38:32,0.00,-0.72,-10.05,24.1
14:38:32,-0.10,-0.70,-9.95,24.1
14:38:32,0.02,-0.55,-9.87,24.1
14:38:32,-0.04,-0.57,-9.91,24.1
14:38:32,-0.10,-0.64,-9.89,24.1
14:38:32,-0.03,-0.63,-9.93,24.1
14:38:32,0.00,-0.53,-10.00,24.1
14:38:32,-0.09,-0.60,-9.94,24.1
14:38:32,-0.02,-0.70,-9.96,24.1
14:38:32,-0.05,-0.66,-9.96,24.1
14:38:32,-0.06,-0.72,-9.95,24.1
14:38:32,-0.05,-0.64,-9.95,24.1
14:38:32,-0.04,-0.59,-9.96,24.1
14:38:32,-0.14,-0.63,-10.02,24.1
14:38:32,-0.08,-0.73,-9.82,24.1
14:38:32,-0.04,-0.62,-9.96,24.1
14:38:32,0.04,-0.66,-9.93,24.1
14:38:32,-0.01,-0.61,-10.00,24.1
14:38:32,-0.01,-0.60,-9.98,24.1
14:38:32,-0.02,-0.66,-9.92,24.1
14:38:32,-0.03,-0.62,-10.03,24.1
14:38:32,-0.03,-0.65,-10.06,24.1
14:38:32,-0.05,-0.60,-9.93,24.1
14:38:32,0.00,-0.60,-9.89,24.1
14:38:32,-0.08,-0.62,-9.93,24.1
14:38:32,-0.04,-0.60,-9.90,24.1
14:38:32,-0.02,-0.70,-9.90,24.1
14:38:32,-0.03,-0.77,-9.94,24.1
14:38:32,0.00,-0.62,-10.01,24.1
14:38:32,-0.08,-0.64,-9.93,24.1
14:38:32,-0.06,-0.60,-9.81,24.1
14:38:32,-0.06,-0.63,-9.96,24.1
14:38:32,-0.03,-0.59,-9.98,24.1
14:38:32,-0.07,-0.69,-9.90,24.1
14:38:32,-0.03,-0.54,-9.99,24.1
14:38:32,0.00,-0.73,-9.94,24.1
14:38:32,0.02,-0.71,-9.96,24.1
14:38:32,-0.04,-0.64,-9.87,24.1
14:38:32,-0.05,-0.64,-10.00,24.1
14:38:32,-0.04,-0.63,-9.95,24.1
14:38:32,-0.11,-0.58,-9.88,24.1
14:38:32,-0.06,-0.69,-9.93,24.1
14:38:32,0.00,-0.76,-10.00,24.1
14:38:32,0.00,-0.64,-9.93,24.1
14:38:32,-0.05,-0.62,-9.88,24.1
14:38:32,-0.08,-0.67,-9.98,24.1
14:38:32,-0.04,-0.56,-9.93,24.1
14:38:32,-0.07,-0.56,-9.95,24.1
14:38:32,-0.01,-0.62,-9.87,24.1
14:38:32,0.05,-0.69,-10.05,24.1
14:38:32,-0.08,-0.66,-9.95,24.1
14:38:32,-0.02,-0.78,-9.87,24.1
14:38:32,-0.10,-0.71,-9.95,24.1
14:38:32,-0.02,-0.64,-9.99,24.1
14:38:32,0.00,-0.55,-10.04,24.1
14:38:32,-0.08,-0.58,-9.83,24.1
14:38:32,-0.15,-0.61,-10.02,24.1
14:38:32,-0.11,-0.55,-10.04,24.1
14:38:32,-0.10,-0.68,-9.89,24.1
14:38:32,-0.06,-0.63,-10.04,24.1
14:38:32,-0.16,-0.73,-9.89,24.1
14:38:32,-0.07,-0.60,-9.88,24.1
14:38:32,-0.01,-0.69,-9.91,24.1
14:38:32,-0.09,-0.59,-9.95,24.1
14:38:32,-0.01,-0.62,-9.94,24.1
14:38:32,-0.10,-0.64,-9.95,24.1
14:38:32,0.02,-0.70,-9.91,24.1
14:38:32,-0.15,-0.66,-10.00,24.1
14:38:32,-0.09,-0.68,-9.98,24.1
14:38:32,-0.17,-0.60,-9.92,24.1
14:38:32,0.00,-0.64,-9.89,24.1
14:38:32,-0.11,-0.61,-9.98,24.1
14:38:32,-0.02,-0.56,-9.89,24.1
14:38:32,-0.02,-0.70,-9.96,24.1
14:38:32,-0.04,-0.59,-9.92,24.1
14:38:32,-0.13,-0.64,-9.87,24.1
14:38:32,-0.03,-0.59,-9.95,24.1
14:38:32,-0.10,-0.62,-9.91,24.1
14:38:32,-0.04,-0.69,-9.98,24.1
14:38:32,-0.05,-0.76,-9.93,24.1
14:38:32,-0.09,-0.68,-9.88,24.1
14:38:32,-0.07,-0.64,-9.96,24.1
14:38:32,-0.13,-0.55,-9.94,24.1
14:38:32,-0.20,-0.70,-9.97,24.1
14:38:32,-0.09,-0.67,-9.98,24.1
14:38:32,-0.07,-0.62,-9.93,24.1
14:38:32,-0.06,-0.72,-9.92,24.1
14:38:32,-0.03,-0.64,-9.87,24.1
14:38:32,0.06,-0.73,-9.84,24.1
14:38:32,-0.09,-0.77,-9.90,24.1
14:38:32,0.02,-0.63,-9.95,24.1
14:38:32,0.03,-0.60,-10.01,24.1
14:38:32,-0.02,-0.58,-9.87,24.1
14:38:32,-0.09,-0.64,-9.81,24.1
14:38:32,-0.06,-0.67,-9.97,24.1
14:38:32,-0.12,-0.64,-9.89,24.1
14:38:32,-0.04,-0.64,-10.09,24.1
14:38:32,-0.13,-0.68,-9.95,24.1
14:38:32,-0.08,-0.62,-9.84,24.1
14:38:32,-0.07,-0.64,-9.96,24.1
14:38:32,0.03,-0.62,-9.96,24.1
14:38:32,-0.12,-0.69,-9.97,24.1
14:38:32,-0.10,-0.68,-10.04,24.1
14:38:32,-0.07,-0.68,-9.99,24.1
14:38:32,-0.05,-0.63,-9.93,24.1
14:38:32,0.01,-0.76,-10.04,24.1
14:38:32,-0.10,-0.63,-9.99,24.1
14:38:32,-0.12,-0.62,-9.92,24.1
14:38:32,0.00,-0.64,-10.05,24.1
14:38:32,-0.16,-0.62,-9.94,24.1
14:38:32,-0.04,-0.61,-9.93,24.1
14:38:32,-0.23,-0.60,-10.03,24.1
14:38:32,0.07,-0.65,-9.92,24.1
14:38:32,-0.01,-0.61,-9.91,24.1
14:38:32,-0.18,-0.67,-9.81,24.1
14:38:32,0.02,-0.66,-9.90,24.1
14:38:32,-0.12,-0.60,-9.93,24.1
14:38:32,0.00,-0.65,-9.87,24.1
14:38:32,-0.11,-0.64,-10.06,24.1
14:38:32,-0.15,-0.71,-9.95,24.1
14:38:32,0.00,-0.64,-9.99,24.1
14:38:32,0.00,-0.69,-9.96,24.1
14:38:32,0.00,-0.65,-9.89,24.1
14:38:32,-0.08,-0.72,-9.95,24.1
14:38:32,0.08,-0.67,-9.87,24.1
14:38:32,-0.01,-0.65,-9.91,24.1
14:38:32,-0.10,-0.69,-10.07,24.1
14:38:32,-0.06,-0.67,-9.94,24.1
14:38:32,-0.14,-0.59,-9.95,24.1
14:38:32,-0.04,-0.59,-9.90,24.1
14:38:32,-0.07,-0.59,-9.86,24.1
14:38:32,-0.06,-0.54,-9.91,24.1
14:38:32,-0.07,-0.58,-9.98,24.1
14:38:32,-0.13,-0.63,-9.87,24.1
14:38:32,-0.05,-0.60,-9.90,24.1
14:38:32,-0.10,-0.66,-9.93,24.1
14:38:32,0.04,-0.58,-10.03,24.1
14:38:32,-0.13,-0.62,-9.91,24.1
14:38:32,0.00,-0.61,-9.85,24.1
14:38:32,-0.09,-0.66,-9.94,24.1
14:38:32,-0.12,-0.57,-9.95,24.1
14:38:32,-0.08,-0.65,-9.93,24.1
14:38:32,-0.01,-0.63,-9.98,24.1
14:38:32,-0.04,-0.66,-9.93,24.1
14:38:32,-0.07,-0.69,-9.94,24.1
14:38:32,-0.04,-0.66,-10.00,24.1
14:38:32,-0.11,-0.71,-9.88,24.1
14:38:32,0.02,-0.76,-10.02,24.1
14:38:32,-0.19,-0.71,-9.97,24.1
14:38:32,-0.07,-0.62,-10.03,24.1
14:38:32,-0.08,-0.65,-10.02,24.1
14:38:32,-0.03,-0.60,-10.05,24.1
14:38:32,-0.18,-0.63,-9.89,24.1
14:38:32,0.00,-0.60,-9.94,24.1
14:38:32,-0.06,-0.63,-9.87,24.1
14:38:32,-0.05,-0.65,-9.98,24.1
14:38:32,-0.01,-0.63,-9.94,24.1
14:38:32,-0.07,-0.68,-9.99,24.1
14:38:32,-0.06,-0.57,-9.91,24.1
14:38:32,-0.07,-0.65,-9.92,24.1
14:38:32,-0.06,-0.65,-9.93,24.1
14:38:32,-0.02,-0.63,-10.02,24.1
14:38:32,-0.04,-0.61,-9.90,24.1
14:38:32,-0.07,-0.65,-10.02,24.1
14:38:32,-0.04,-0.72,-9.98,24.1
14:38:32,0.00,-0.64,-9.95,24.1
14:38:32,-0.14,-0.74,-9.96,24.1
14:38:32,-0.03,-0.72,-10.00,24.1
14:38:32,-0.15,-0.58,-9.96,24.1
14:38:32,-0.07,-0.56,-9.92,24.1
14:38:32,0.17,-0.60,-9.89,24.1
14:38:32,-0.09,-0.68,-9.93,24.1
14:38:32,0.05,-0.75,-9.97,24.1
14:38:32,-0.13,-0.65,-9.86,24.1
14:38:32,0.00,-0.73,-9.98,24.1
14:38:32,-0.08,-0.57,-9.96,24.1
14:38:32,0.00,-0.58,-9.87,24.1
14:38:32,-0.05,-0.68,-9.91,24.1
14:38:32,-0.02,-0.76,-9.97,24.1
14:38:32,-0.07,-0.57,-9.87,24.1
14:38:32,-0.03,-0.72,-9.80,24.1
14:38:33,-0.09,-0.64,-9.89,24.1
14:38:33,-0.09,-0.63,-9.89,24.1
14:38:33,-0.01,-0.58,-9.98,24.1
14:38:33,-0.12,-0.67,-9.97,24.1
14:38:33,0.02,-0.64,-10.00,24.1
14:38:33,0.08,-0.65,-10.02,24.1
14:38:33,-0.07,-0.62,-9.96,24.1
14:38:33,0.01,-0.65,-9.93,24.1
14:38:33,-0.06,-0.78,-9.91,24.1
14:38:33,-0.12,-0.71,-9.94,24.1
14:38:33,-0.04,-0.61,-9.97,24.1
14:38:33,0.00,-0.62,-9.90,24.1
14:38:33,-0.15,-0.65,-9.94,24.1
14:38:33,-0.04,-0.64,-10.00,24.1
14:38:33,-0.05,-0.71,-9.87,24.1
14:38:33,-0.07,-0.64,-9.98,24.1
14:38:33,-0.08,-0.66,-9.88,24.1
14:38:33,-0.05,-0.63,-9.98,24.1
14:38:33,-0.03,-0.60,-10.06,24.1
14:38:33,-0.03,-0.64,-10.01,24.1
14:38:33,-0.01,-0.66,-9.89,24.1
14:38:33,-0.10,-0.74,-9.96,24.1
14:38:33,-0.03,-0.65,-9.97,24.1
14:38:33,0.00,-0.54,-9.94,24.1
14:38:33,0.00,-0.64,-9.96,24.1
14:38:33,-0.03,-0.64,-10.04,24.1
14:38:33,-0.12,-0.73,-9.89,24.1
14:38:33,-0.02,-0.63,-10.01,24.1
14:38:33,-0.15,-0.80,-9.98,24.1
14:38:33,0.00,-0.67,-9.98,24.1
14:38:33,-0.05,-0.62,-9.95,24.1
14:38:33,-0.06,-0.61,-9.94,24.1
14:38:33,-0.11,-0.63,-9.88,24.1
14:38:33,-0.03,-0.53,-9.87,24.1
14:38:33,-0.10,-0.65,-10.01,24.1
14:38:33,-0.06,-0.64,-9.95,24.1
14:38:33,0.05,-0.74,-9.89,24.1
14:38:33,-0.01,-0.59,-9.93,24.1
14:38:33,-0.07,-0.70,-9.85,24.1
14:38:33,-0.04,-0.60,-9.99,24.1
14:38:33,-0.07,-0.70,-9.94,24.1
14:38:33,-0.08,-0.62,-9.91,24.1
14:38:33,-0.08,-0.67,-9.93,24.1
14:38:33,-0.01,-0.63,-9.85,24.1
14:38:33,-0.10,-0.59,-9.95,24.1
14:38:33,-0.04,-0.58,-9.91,24.1
14:38:33,-0.06,-0.64,-10.00,24.1
14:38:33,-0.19,-0.66,-9.89,24.1
14:38:33,-0.01,-0.60,-10.01,24.1
14:38:33,-0.05,-0.65,-9.94,24.1
14:38:33,-0.05,-0.72,-9.91,24.1
14:38:33,-0.09,-0.62,-9.99,24.1
14:38:33,-0.13,-0.61,-9.86,24.1
14:38:33,-0.03,-0.64,-9.99,24.1
14:38:33,-0.03,-0.67,-9.94,24.1
14:38:33,0.01,-0.57,-9.96,24.1
14:38:33,-0.04,-0.70,-9.98,24.1
14:38:33,-0.04,-0.65,-9.98,24.1
14:38:33,-0.08,-0.57,-9.98,24.1
14:38:33,-0.07,-0.61,-9.96,24.1
14:38:33,-0.15,-0.66,-9.90,24.1
14:38:33,-0.09,-0.65,-9.98,24.1
14:38:33,-0.16,-0.61,-9.88,24.1
14:38:33,-0.01,-0.72,-9.97,24.1
14:38:33,-0.09,-0.56,-9.87,24.1
14:38:33,-0.13,-0.65,-9.86,24.1
14:38:33,-0.04,-0.55,-9.87,24.1
14:38:33,-0.08,-0.57,-9.93,24.1
14:38:33,0.03,-0.71,-9.93,24.1
14:38:33,-0.11,-0.62,-9.92,24.1
14:38:33,-0.04,-0.70,-9.99,24.1
14:38:33,-0.08,-0.59,-10.01,24.1
14:38:33,-0.14,-0.73,-9.91,24.1
14:38:33,-0.05,-0.71,-9.91,24.1
14:38:33,-0.12,-0.59,-9.90,24.1
14:38:33,-0.02,-0.65,-9.93,24.1
14:38:33,-0.06,-0.64,-9.98,24.1
14:38:33,0.00,-0.65,-9.85,24.1
14:38:33,-0.07,-0.72,-10.01,24.1
14:38:33,-0.03,-0.66,-9.87,24.1
14:38:33,-0.09,-0.68,-9.92,24.1
14:38:33,-0.13,-0.60,-10.05,24.1
14:38:33,0.01,-0.78,-9.97,24.1
14:38:33,-0.11,-0.69,-9.90,24.1
14:38:33,-0.06,-0.63,-9.92,24.1
14:38:33,-0.11,-0.65,-9.93,24.1
14:38:33,-0.10,-0.73,-9.97,24.1
14:38:33,-0.07,-0.68,-9.87,24.1
14:38:33,-0.03,-0.66,-9.91,24.1
14:38:33,-0.06,-0.53,-9.92,24.1
14:38:33,-0.04,-0.59,-9.97,24.1
14:38:33,-0.04,-0.72,-10.09,24.1
14:38:33,-0.06,-0.70,-9.95,24.1
14:38:33,-0.14,-0.62,-9.92,24.1
14:38:33,-0.01,-0.60,-9.96,24.1
14:38:33,0.02,-0.64,-10.00,24.1
14:38:33,0.01,-0.68,-10.03,24.1
14:38:33,-0.10,-0.03,-10.01,24.1
14:38:33,0.00,-0.75,-9.92,24.1
14:38:33,-0.03,-0.56,-9.87,24.1
14:38:33,-0.13,-0.71,-10.51,24.1
14:38:33,0.02,-0.65,-9.93,24.1
14:38:33,0.03,-0.58,-9.86,24.1
14:38:33,-0.08,-0.70,-9.93,24.1
14:38:33,-0.09,-0.57,-9.29,24.1
14:38:33,-0.03,-0.57,-9.91,24.1
14:38:33,-0.09,-0.63,-10.01,24.1
14:38:33,-0.08,-0.67,-9.91,24.1
14:38:33,-0.18,-0.74,-9.95,24.1
14:38:33,-0.14,-0.70,-9.95,24.1
14:38:33,-0.03,-0.66,-9.94,24.1
14:38:33,-0.09,-0.68,-9.98,24.1
14:38:33,-0.03,-0.72,-9.96,24.1
14:38:33,-0.15,-0.71,-10.49,24.1
14:38:33,-0.01,-0.66,-9.37,24.1
14:38:33,-0.16,-0.68,-10.01,24.1
14:38:33,-0.11,-0.62,-9.28,24.1
14:38:33,-0.03,-0.69,-9.98,24.1
14:38:33,-0.03,-0.72,-10.00,24.1
14:38:33,0.02,-0.61,-9.92,24.1
14:38:33,0.03,-0.64,-10.45,24.1
14:38:33,0.03,-0.64,-9.97,24.1
14:38:33,-0.02,-0.72,-10.09,24.1
14:38:33,0.01,-0.68,-9.95,24.1
14:38:33,0.04,-0.57,-10.00,24.1
14:38:33,-0.01,-0.76,-9.96,24.1
14:38:33,-0.01,-0.70,-9.96,24.1
14:38:33,0.03,-0.61,-9.94,24.1
14:38:33,-0.01,-0.71,-9.97,24.1
14:38:33,-0.04,-0.74,-9.84,24.1
14:38:33,0.01,-0.63,-9.89,24.1
14:38:33,0.03,-0.60,-9.99,24.1
14:38:33,-0.09,-0.53,-9.87,24.1
14:38:33,-0.07,-0.55,-9.91,24.1
14:38:33,-0.07,-0.63,-9.94,24.1
14:38:33,-0.07,-0.66,-9.98,24.1
14:38:33,-0.08,-0.66,-10.02,24.1
14:38:33,-0.04,-0.57,-9.94,24.1
14:38:33,-0.07,-0.52,-9.87,24.1
14:38:33,-0.13,-0.67,-9.96,24.1
14:38:33,-0.05,-0.64,-10.04,24.1
14:38:33,-0.06,-0.56,-9.87,24.1
14:38:33,-0.18,-0.65,-9.85,24.1
14:38:33,-0.12,-0.64,-9.98,24.1
14:38:33,-0.21,-0.61,-9.99,24.1
14:38:33,-0.12,-0.64,-9.94,24.1
14:38:33,-0.05,-0.68,-9.88,24.1
14:38:33,-0.07,-0.67,-9.91,24.1
14:38:33,-0.12,-0.72,-9.96,24.1
14:38:33,0.02,-0.59,-9.86,24.1
14:38:33,-0.08,-0.63,-10.00,24.1
14:38:33,-0.04,-0.64,-9.83,24.1
14:38:33,-0.12,-0.62,-10.02,24.1
14:38:33,-0.05,-0.66,-9.89,24.1
14:38:33,-0.14,-0.67,-10.00,24.1
14:38:33,-0.04,-0.61,-9.97,24.1
14:38:33,-0.09,-0.68,-10.04,24.1
14:38:33,-0.05,-0.56,-9.90,24.1
14:38:33,-0.03,-0.70,-9.92,24.1
14:38:33,0.03,-0.68,-10.01,24.1
14:38:33,-0.05,-0.58,-10.13,24.1
14:38:33,-0.07,-0.61,-9.96,24.1
14:38:33,-0.04,-0.62,-9.99,24.1
14:38:33,0.00,-0.61,-10.04,24.1
14:38:33,0.01,-0.58,-10.07,24.1
14:38:33,-0.03,-0.64,-9.96,24.1
14:38:33,-0.12,-0.66,-9.92,24.1
14:38:33,-0.08,-0.53,-9.98,24.1
14:38:33,-0.08,-0.58,-9.90,24.1
14:38:33,-0.07,-0.63,-9.93,24.1
14:38:33,-0.18,-0.60,-9.88,24.1
14:38:33,-0.09,-0.56,-9.94,24.1
14:38:33,-0.10,-0.62,-10.06,24.1
14:38:33,-0.15,-0.62,-10.03,24.1
14:38:33,-0.05,-0.68,-9.92,24.1
14:38:33,-0.14,-0.67,-9.90,24.1
14:38:33,-0.08,-0.78,-9.79,24.1
14:38:33,-0.09,-0.57,-9.98,24.1
14:38:33,-0.04,-0.59,-9.86,24.1
14:38:33,-0.13,-0.59,-9.95,24.1
14:38:33,-0.09,-0.55,-10.01,24.1
14:38:33,-0.02,-0.66,-9.88,24.1
14:38:33,-0.05,-0.60,-9.95,24.1
14:38:33,-0.13,-0.70,-9.98,24.1
14:38:33,-0.09,-0.68,-9.85,24.1
14:38:33,-0.07,-0.64,-9.91,24.1
14:38:33,-0.10,-0.59,-9.99,24.1
14:38:33,-0.03,-0.65,-9.84,24.1
14:38:33,0.00,-0.66,-9.89,24.1
14:38:33,0.00,-0.62,-9.96,24.1
14:38:33,-0.04,-0.68,-9.97,24.1
14:38:33,-0.10,-0.67,-9.99,24.1
14:38:33,-0.08,-0.55,-9.87,24.1
14:38:33,-0.04,-0.60,-9.92,24.1
14:38:33,-0.02,-0.63,-9.97,24.1
14:38:33,-0.10,-0.57,-10.00,24.1
14:38:33,-0.05,-0.73,-9.93,24.1
14:38:33,-0.03,-0.64,-9.97,24.1
14:38:33,-0.08,-0.62,-9.98,24.1
14:38:33,-0.06,-0.60,-9.91,24.1
14:38:33,-0.07,-0.62,-9.90,24.1
14:38:33,-0.05,-0.68,-9.93,24.1
14:38:33,-0.11,-0.67,-9.86,24.1
14:38:33,-0.06,-0.62,-9.89,24.1
14:38:33,-0.09,-0.67,-10.01,24.1
14:38:33,-0.08,-0.57,-9.90,24.1
14:38:33,0.07,-0.71,-9.90,24.1
14:38:33,-0.08,-0.72,-9.99,24.1
14:38:33,0.00,-0.60,-9.97,24.1
14:38:33,0.00,-0.64,-9.98,24.1
14:38:33,-0.05,-0.66,-9.88,24.1
14:38:33,-0.03,-0.59,-10.04,24.1
14:38:33,-0.07,-0.62,-9.95,24.1
14:38:33,-0.01,-0.68,-9.93,24.1
14:38:33,-0.07,-0.59,-9.94,24.1
14:38:33,-0.07,-0.61,-10.01,24.1
14:38:33,0.04,-0.66,-10.01,24.1
14:38:33,-0.03,-0.60,-9.93,24.1
14:38:33,-0.07,-0.70,-9.92,24.1
14:38:33,-0.13,-0.67,-10.05,24.1
14:38:33,0.01,-0.69,-9.93,24.1
14:38:33,-0.14,-0.66,-9.98,24.1
14:38:33,-0.01,-0.71,-9.90,24.1
14:38:33,-0.06,-0.66,-9.89,24.1
14:38:33,-0.07,-0.61,-10.00,24.1
14:38:33,-0.05,-0.62,-9.91,24.1
14:38:33,-0.04,-0.57,-9.99,24.1
14:38:33,-0.06,-0.57,-10.03,24.1
14:38:33,-0.02,-0.60,-9.97,24.1
14:38:33,-0.13,-0.64,-9.99,24.1
14:38:33,-0.10,-0.56,-10.02,24.1
14:38:33,0.02,-0.63,-9.93,24.1
14:38:33,-0.12,-0.61,-10.00,24.1
14:38:33,-0.08,-0.66,-9.96,24.1
14:38:34,-0.11,-0.62,-9.88,24.1
14:38:34,-0.08,-0.55,-9.97,24.1
14:38:34,0.06,-0.55,-10.10,24.1
14:38:34,-0.01,-0.53,-10.01,24.1
14:38:34,-0.02,-0.64,-10.02,24.1
14:38:34,-0.08,-0.59,-10.02,24.1
14:38:34,-0.04,-0.63,-9.91,24.1
14:38:34,-0.15,-0.62,-9.91,24.1
14:38:34,-0.08,-0.66,-9.98,24.1
14:38:34,-0.02,-0.54,-9.91,24.1
14:38:34,-0.01,-0.65,-9.92,24.1
14:38:34,-0.01,-0.60,-9.94,24.1
14:38:34,-0.07,-0.76,-9.30,24.1
14:38:34,-0.25,-0.60,-10.02,24.1
14:38:34,-0.17,-0.63,-9.93,24.1
14:38:34,-0.06,-0.50,-9.90,24.1
14:38:34,0.05,-0.55,-9.96,24.1
14:38:34,-0.11,-0.57,-9.92,24.1
14:38:34,0.06,-0.69,-9.96,24.1
14:38:34,0.01,-0.81,-9.84,24.1
14:38:34,-0.12,-0.65,-9.96,24.1
14:38:34,-0.03,-0.60,-9.86,24.1
14:38:34,-0.02,-0.69,-9.91,24.1
14:38:34,-0.16,-0.67,-10.01,24.1
14:38:34,0.01,-0.70,-10.00,24.1
14:38:34,-0.02,-0.58,-9.87,24.1
14:38:34,-0.05,-0.63,-10.00,24.1
14:38:34,0.00,-0.66,-9.85,24.1
14:38:34,-0.05,-0.57,-9.79,24.1
14:38:34,-0.14,-0.55,-9.99,24.1
14:38:34,0.00,-0.63,-9.90,24.1
14:38:34,-0.12,-0.64,-10.00,24.1
14:38:34,-0.06,-0.56,-9.94,24.1
14:38:34,-0.04,-0.55,-9.94,24.1
14:38:34,-0.08,-0.65,-9.93,24.1
14:38:34,-0.07,-0.62,-9.96,24.1
14:38:34,-0.12,-0.64,-9.95,24.1
14:38:34,-0.07,-0.57,-10.04,24.1
14:38:34,-0.04,-0.65,-9.96,24.1
14:38:34,-0.06,-0.69,-9.93,24.1
14:38:34,-0.04,-0.72,-9.83,24.1
14:38:34,-0.10,-0.69,-9.93,24.1
14:38:34,-0.07,-0.54,-9.87,24.1
14:38:34,-0.06,-0.64,-9.96,24.1
14:38:34,-0.10,-0.58,-9.89,24.1
14:38:34,0.01,-0.66,-9.91,24.1
14:38:34,-0.01,-0.71,-9.99,24.1
14:38:34,-0.03,-0.58,-10.00,24.1
14:38:34,-0.09,-0.63,-9.88,24.1
14:38:34,-0.02,-0.64,-9.97,24.1
14:38:34,-0.01,-0.66,-10.07,24.1
14:38:34,-0.03,-0.71,-10.02,24.1
14:38:34,-0.02,-0.72,-9.99,24.1
14:38:34,-0.06,-0.70,-9.96,24.1
14:38:34,-0.20,-0.60,-9.94,24.1
14:38:34,-0.10,-0.62,-9.94,24.1
14:38:34,0.03,-0.66,-9.97,24.1
14:38:34,-0.03,-0.67,-9.97,24.1
14:38:34,0.00,-0.68,-9.87,24.1
14:38:34,-0.08,-0.70,-10.05,24.1
14:38:34,0.02,-0.58,-9.91,24.1
14:38:34,-0.04,-0.67,-10.00,24.1
14:38:34,0.00,-0.70,-10.02,24.1
14:38:34,-0.09,-0.56,-9.96,24.1
14:38:34,-0.10,-0.60,-9.96,24.1
14:38:34,-0.04,-0.71,-10.04,24.1
14:38:34,-0.05,-0.64,-10.00,24.1
14:38:34,-0.09,-0.64,-9.94,24.1
14:38:34,-0.01,-0.51,-9.98,24.1
14:38:34,-0.14,-0.65,-10.01,24.1
14:38:34,-0.03,-0.57,-9.95,24.1
14:38:34,-0.10,-0.62,-9.91,24.1
14:38:34,0.02,-0.69,-9.90,24.1
14:38:34,0.01,-0.58,-9.95,24.1
14:38:34,0.01,-0.64,-9.97,24.1
14:38:34,-0.13,-0.73,-9.93,24.1
14:38:34,-0.09,-0.66,-9.92,24.1
14:38:34,-0.06,-0.62,-9.95,24.1
14:38:34,-0.05,-0.62,-9.83,24.1
14:38:34,0.05,-0.68,-10.00,24.1
14:38:34,0.00,-0.74,-9.89,24.1
14:38:34,-0.09,-0.74,-9.90,24.1
14:38:34,-0.10,-0.70,-10.05,24.1
14:38:34,-0.02,-0.53,-10.04,24.1
14:38:34,-0.09,-0.70,-9.92,24.1
14:38:34,-0.14,-0.66,-9.99,24.1
14:38:34,-0.06,-0.72,-9.95,24.1
14:38:34,-0.11,-0.50,-10.01,24.1
14:38:34,-0.04,-0.65,-9.97,24.1
14:38:34,-0.09,-0.57,-9.91,24.1
14:38:34,-0.08,-0.69,-10.04,24.1
14:38:34,0.01,-0.65,-9.91,24.1
14:38:34,-0.15,-0.65,-10.08,24.1
14:38:34,0.00,-0.65,-9.95,24.1
14:38:34,-0.12,-0.74,-9.90,24.1
14:38:34,-0.04,-0.70,-9.91,24.1
14:38:34,-0.06,-0.62,-9.97,24.1
14:38:34,0.01,-0.70,-9.91,24.1
14:38:34,-0.06,-0.60,-9.96,24.1
14:38:34,0.00,-0.65,-9.92,24.1
14:38:34,-0.08,-0.71,-9.88,24.1
14:38:34,-0.05,-0.66,-9.80,24.1
14:38:34,0.05,-0.71,-10.00,24.1
14:38:34,-0.07,-0.64,-9.98,24.1
14:38:34,-0.08,-0.72,-9.93,24.1
14:38:34,-0.17,-0.74,-9.97,24.1
14:38:34,0.00,-0.59,-9.95,24.1
14:38:34,-0.05,-0.52,-9.87,24.1
14:38:34,-0.05,-0.65,-10.05,24.1
14:38:34,-0.08,-0.61,-9.90,24.1
14:38:34,0.01,-0.69,-9.94,24.1
14:38:34,-0.13,-0.64,-9.93,24.1
14:38:34,0.01,-0.59,-9.99,24.1
14:38:34,0.04,-0.59,-10.06,24.1
14:38:34,-0.09,-0.69,-9.93,24.1
14:38:34,-0.08,-0.66,-10.01,24.1
14:38:34,-0.04,-0.69,-9.89,24.1
14:38:34,-0.02,-0.71,-9.91,24.1
14:38:34,-0.13,-0.62,-9.88,24.1
14:38:34,-0.03,-0.63,-9.91,24.1
14:38:34,0.00,-0.61,-10.00,24.1
14:38:34,-0.08,-0.54,-9.91,24.1
14:38:34,-0.02,-0.65,-9.89,24.1
14:38:34,0.00,-0.70,-9.97,24.1
14:38:34,-0.14,-0.57,-9.98,24.1
14:38:34,-0.07,-0.67,-9.93,24.1
14:38:34,-0.07,-0.69,-9.95,24.1
14:38:34,-0.02,-0.54,-9.84,24.1
14:38:34,-0.14,-0.61,-9.90,24.1
14:38:34,-0.08,-0.70,-9.99,24.1
14:38:34,-0.03,-0.48,-9.89,24.1
14:38:34,-0.14,-0.71,-9.95,24.1
14:38:34,-0.07,-0.61,-9.93,24.1
14:38:34,0.01,-0.56,-9.93,24.1
14:38:34,-0.07,-0.63,-9.96,24.1
14:38:34,0.04,-0.60,-9.96,24.1
14:38:34,0.06,-0.67,-9.95,24.1
14:38:34,-0.13,-0.71,-9.98,24.1
14:38:34,-0.13,-0.61,-9.89,24.1
14:38:34,-0.17,-0.64,-10.01,24.1
14:38:34,-0.06,-0.70,-9.88,24.1
14:38:34,-0.06,-0.71,-9.84,24.1
14:38:34,-0.10,-0.52,-9.89,24.1
14:38:34,-0.12,-0.63,-9.94,24.1
14:38:34,-0.03,-0.64,-9.90,24.1
14:38:34,-0.02,-0.62,-9.90,24.1
14:38:34,-0.07,-0.58,-9.94,24.1
14:38:34,-0.17,-0.67,-10.02,24.1
14:38:34,-0.06,-0.65,-10.02,24.1
14:38:34,0.05,-0.61,-10.04,24.1
14:38:34,-0.05,-0.77,-9.95,24.1
14:38:34,-0.07,-0.61,-9.99,24.1
14:38:34,-0.03,-0.66,-10.00,24.1
14:38:34,-0.06,-0.71,-9.92,24.1
14:38:34,0.04,-0.59,-9.99,24.1
14:38:34,-0.01,-0.68,-9.94,24.1
14:38:34,-0.12,-0.59,-9.90,24.1
14:38:34,-0.08,-0.69,-9.96,24.1
14:38:34,-0.07,-0.55,-10.06,24.1
14:38:34,-0.06,-0.67,-9.91,24.1
14:38:34,-0.08,-0.70,-9.92,24.1
14:38:34,-0.06,-0.57,-9.91,24.1
14:38:34,-0.17,-0.61,-9.95,24.1
14:38:34,-0.09,-0.52,-9.97,24.1
14:38:34,-0.04,-0.66,-9.93,24.1
14:38:34,-0.06,-0.55,-10.03,24.1
14:38:34,-0.16,-0.63,-9.96,24.1
14:38:34,-0.07,-0.71,-9.94,24.1
14:38:34,-0.07,-0.58,-9.94,24.1
14:38:34,-0.05,-0.65,-10.02,24.1
14:38:34,-0.05,-0.67,-9.96,24.1
14:38:34,-0.08,-0.54,-10.00,24.1
14:38:34,-0.01,-0.59,-9.89,24.1
14:38:34,-0.11,-0.60,-9.99,24.1
14:38:34,-0.09,-0.52,-10.01,24.1
14:38:34,-0.03,-0.66,-9.90,24.1
14:38:34,0.03,-0.64,-9.97,24.1
14:38:34,-0.09,-0.72,-10.00,24.1
14:38:34,0.04,-0.61,-9.84,24.1
14:38:34,0.00,-0.67,-9.95,24.1
14:38:34,0.05,-0.68,-9.91,24.1
14:38:34,-0.12,-0.56,-9.89,24.1
14:38:34,-0.07,-0.65,-9.98,24.1
14:38:34,-0.11,-0.70,-9.91,24.1
14:38:34,-0.18,-0.65,-9.91,24.1
14:38:34,-0.06,-0.58,-10.08,24.1
14:38:34,-0.14,-0.71,-10.00,24.1
14:38:34,-0.10,-0.67,-9.96,24.1
14:38:34,-0.04,-0.61,-9.94,24.1
14:38:34,-0.16,-0.63,-9.98,24.1
14:38:34,-0.12,-0.62,-9.91,24.1
14:38:34,-0.04,-0.68,-10.01,24.1
14:38:34,-0.10,-0.64,-9.87,24.1
14:38:34,0.00,-0.61,-10.00,24.1
14:38:34,-0.02,-0.60,-10.01,24.1
14:38:34,-0.04,-0.68,-9.99,24.1
14:38:34,-0.10,-0.69,-9.95,24.1
14:38:34,-0.06,-0.67,-9.96,24.1
14:38:34,-0.12,-0.65,-9.98,24.1
14:38:34,-0.06,-0.60,-9.96,24.1
14:38:34,-0.07,-0.60,-9.87,24.1
14:38:34,-0.15,-0.63,-9.93,24.1
14:38:34,-0.02,-0.62,-10.05,24.1
14:38:34,-0.02,-0.62,-9.93,24.1
14:38:34,-0.01,-0.58,-9.96,24.1
14:38:34,-0.14,-0.72,-9.93,24.1
14:38:34,-0.14,-0.58,-9.93,24.1
14:38:34,-0.06,-0.70,-9.96,24.1
14:38:34,-0.10,-0.61,-10.03,24.1
14:38:34,-0.18,-0.57,-9.98,24.1
14:38:34,-0.02,-0.67,-9.95,24.1
14:38:34,0.03,-0.71,-9.91,24.1
14:38:34,0.04,-0.72,-10.03,24.1
14:38:34,-0.01,-0.66,-9.90,24.1
14:38:34,-0.10,-0.75,-9.90,24.1
14:38:34,0.00,-0.72,-9.94,24.1
14:38:34,-0.03,-0.63,-9.84,24.1
14:38:34,0.01,-0.69,-9.99,24.1
14:38:34,-0.12,-0.59,-9.90,24.1
14:38:34,-0.02,-0.70,-9.90,24.1
14:38:34,-0.13,-0.67,-9.85,24.1
14:38:34,-0.05,-0.58,-9.99,24.1
14:38:34,-0.04,-0.64,-10.00,24.1
14:38:34,0.06,-0.61,-9.85,24.1
14:38:34,-0.06,-0.58,-9.95,24.1
14:38:34,-0.11,-0.68,-9.93,24.1
14:38:34,-0.08,-0.58,-9.95,24.1
14:38:34,-0.10,-0.54,-9.98,24.1
14:38:34,-0.07,-0.66,-9.97,24.1
14:38:34,-0.04,-0.73,-9.88,24.1
14:38:34,-0.06,-0.67,-9.93,24.1
14:38:34,-0.07,-0.67,-9.98,24.1
14:38:34,-0.08,-0.59,-9.97,24.1
14:38:35,-0.01,-0.59,-9.94,24.1
14:38:35,-0.08,-0.77,-9.96,24.1
14:38:35,-0.04,-0.69,-9.99,24.1
14:38:35,-0.05,-0.65,-9.87,24.1
14:38:35,0.00,-0.67,-9.92,24.1
14:38:35,-0.11,-0.69,-10.02,24.1
14:38:35,-0.14,-0.64,-9.94,24.1
14:38:35,-0.08,-0.59,-9.89,24.1
14:38:35,-0.09,-0.62,-9.86,24.1
14:38:35,0.02,-0.71,-9.90,24.1
14:38:35,-0.12,-0.71,-10.04,24.1
14:38:35,0.03,-0.70,-9.94,24.1
14:38:35,-0.08,-0.70,-9.90,24.1
14:38:35,-0.04,-0.69,-9.91,24.1
14:38:35,-0.09,-0.67,-9.87,24.1
14:38:35,-0.05,-0.68,-9.98,24.1
14:38:35,-0.09,-0.68,-9.90,24.1
14:38:35,0.02,-0.69,-9.87,24.1
14:38:35,-0.01,-0.67,-9.89,24.1
14:38:35,0.00,-0.60,-10.04,24.1
14:38:35,0.08,-0.64,-9.93,24.1
14:38:35,-0.13,-0.55,-9.93,24.1
14:38:35,-0.14,-0.65,-9.95,24.1
14:38:35,-0.09,-0.64,-9.90,24.1
14:38:35,-0.04,-0.56,-9.92,24.1
14:38:35,0.03,-0.67,-10.01,24.1
14:38:35,0.03,-0.63,-9.89,24.1
14:38:35,-0.04,-0.68,-9.74,24.1
14:38:35,-0.03,-0.68,-9.96,24.1
14:38:35,-0.12,-0.69,-10.01,24.1
14:38:35,-0.11,-0.64,-9.93,24.1
14:38:35,-0.06,-0.60,-9.97,24.1
14:38:35,0.03,-0.66,-9.94,24.1
14:38:35,-0.10,-0.65,-9.94,24.1
14:38:35,0.06,-0.76,-9.95,24.1
14:38:35,-0.05,-0.65,-9.87,24.1
14:38:35,-0.15,-0.62,-9.97,24.1
14:38:35,-0.08,-0.63,-9.98,24.1
14:38:35,-0.07,-0.66,-9.93,24.1
14:38:35,-0.17,-0.55,-10.02,24.1
14:38:35,-0.06,-0.66,-9.30,24.1
14:38:35,-0.62,-1.24,-9.79,24.1
14:38:35,-0.13,-0.61,-9.80,24.1
14:38:35,-0.04,-0.67,-9.92,24.1
14:38:35,-0.09,-0.58,-9.87,24.1
14:38:35,0.01,-0.63,-9.89,24.1
14:38:35,-0.03,-0.66,-9.98,24.1
14:38:35,-0.08,-0.60,-10.01,24.1
14:38:35,-0.01,-0.72,-9.90,24.1
14:38:35,-0.12,-0.62,-9.94,24.1
14:38:35,-0.09,-0.68,-9.98,24.1
14:38:35,-0.04,-0.42,-10.00,24.1
14:38:35,-0.08,0.04,-10.27,24.1
14:38:35,-0.14,-1.04,-9.63,24.1
14:38:35,-0.02,-1.30,-9.64,24.1
14:38:35,-0.10,-0.56,-10.18,24.1
14:38:35,0.05,-0.70,-9.97,24.1
14:38:35,0.03,-0.70,-9.87,24.1
14:38:35,0.00,-0.43,-10.00,24.1
14:38:35,-0.01,-0.71,-9.98,24.1
14:38:35,-0.09,-0.89,-9.80,24.1
14:38:35,0.00,-0.57,-10.13,24.1
14:38:35,-0.07,-0.61,-10.01,24.1
14:38:35,-0.02,-0.76,-9.94,24.1
14:38:35,-0.26,-0.57,-9.87,24.1
14:38:35,-0.01,-0.68,-10.02,24.1
14:38:35,0.00,-0.13,-10.41,24.1
14:38:35,-0.07,0.26,-10.44,24.1
14:38:35,-0.18,-1.41,-9.46,24.1
14:38:35,-0.11,-0.99,-9.75,24.1
14:38:35,-0.16,-0.53,-10.19,24.1
14:38:35,0.03,-0.66,-9.95,24.1
14:38:35,-0.08,-0.36,-10.02,24.1
14:38:35,-0.06,-0.45,-9.94,24.1
14:38:35,-0.02,-0.84,-9.96,24.1
14:38:35,-0.02,-0.75,-9.95,24.1
14:38:35,-0.06,-0.62,-9.91,24.1
14:38:35,-0.18,-0.86,-9.84,24.1
14:38:35,-0.03,-0.69,-9.96,24.1
14:38:35,-0.09,-0.62,-10.01,24.1
14:38:35,-0.13,-0.58,-10.14,24.1
14:38:35,-0.05,-1.28,-9.54,24.1
14:38:35,-0.09,-0.96,-9.82,24.1
14:38:35,0.02,-1.09,-9.70,24.1
14:38:35,-0.02,0.00,-10.14,24.1
14:38:35,0.03,-1.95,-9.39,24.1
14:38:35,0.00,0.10,-10.41,24.1
14:38:35,-0.04,0.08,-10.25,24.1
14:38:35,-0.26,-1.05,-9.70,24.1
14:38:35,-0.13,-0.58,-9.94,24.1
14:38:35,-0.02,-0.70,-9.95,24.1
14:38:35,0.04,-0.80,-10.07,24.1
14:38:35,-0.06,-0.30,-10.01,24.1
14:38:35,-0.19,-0.68,-9.86,24.1
14:38:35,-0.03,-0.82,-9.95,24.1
14:38:35,0.04,-0.67,-10.03,24.1
14:38:35,-0.02,-0.53,-10.06,24.1
14:38:35,-0.15,-0.22,-10.07,24.1
14:38:35,0.02,-1.16,-9.43,24.1
14:38:35,-0.17,-2.24,-8.62,24.1
14:38:35,-0.19,0.08,-10.67,24.1
14:38:35,-0.21,-0.89,-10.43,24.1
14:38:35,0.17,-0.04,-10.30,24.1
14:38:35,-0.10,-0.15,-9.18,24.1
14:38:35,0.01,-2.15,-9.35,24.1
14:38:35,-0.09,-0.31,-10.90,24.1
14:38:35,0.01,-0.50,-9.95,24.1
14:38:35,-0.21,-0.03,-9.86,24.1
14:38:35,-0.28,-0.95,-9.96,24.1
14:38:35,-0.04,-1.00,-9.77,24.1
14:38:35,0.06,-0.55,-9.95,24.1
14:38:35,-0.12,-0.67,-10.14,24.1
14:38:35,-0.16,-0.43,-9.83,24.1
14:38:35,-0.10,-0.75,-9.81,24.1
14:38:35,-0.38,0.98,-10.92,24.1
14:38:35,-0.10,-2.05,-10.08,24.1
14:38:35,-0.04,1.98,-11.52,24.1
14:38:35,0.28,-0.46,-10.28,24.1
14:38:35,0.06,-0.22,-10.23,24.1
14:38:35,0.13,-1.45,-10.22,24.1
14:38:35,0.09,-0.65,-10.23,24.1
14:38:35,-0.06,-0.11,-10.26,24.1
14:38:35,-0.11,-1.44,-9.43,24.1
14:38:35,-0.04,0.49,-10.05,24.1
14:38:35,0.06,1.06,-10.07,24.1
14:38:35,0.14,0.30,-9.67,24.1
14:38:35,0.11,0.89,-9.79,24.1
14:38:35,0.15,1.14,-9.60,24.1
14:38:35,0.02,-0.96,-9.35,24.1
14:38:35,-0.09,-0.51,-9.79,24.1
14:38:35,-0.01,-3.48,-10.24,24.1
14:38:35,-0.34,-4.89,-10.44,24.1
14:38:35,-0.73,-6.88,-9.03,24.1
14:38:35,-0.78,-3.77,-9.45,24.1
14:38:35,-0.86,-2.01,-10.22,24.1
14:38:35,-0.55,-0.95,-10.94,24.1
14:38:35,-0.08,-2.24,-9.81,24.1
14:38:35,0.11,0.06,-10.28,24.1
14:38:35,0.02,0.99,-10.11,24.1
14:38:35,0.02,0.11,-9.29,24.1
14:38:35,0.18,2.06,-9.75,24.1
14:38:35,0.16,3.80,-10.11,24.1
14:38:35,0.66,4.05,-9.97,24.1
14:38:35,0.61,4.97,-9.93,24.1
14:38:35,0.65,3.55,-9.69,24.1
14:38:35,0.38,0.89,-9.81,24.1
14:38:35,-0.08,-2.49,-10.70,24.1
14:38:35,-0.92,-4.84,-11.18,24.1
14:38:35,-0.99,-6.57,-10.08,24.1
14:38:35,-0.80,-6.34,-8.93,24.1
14:38:35,-0.99,-7.34,-8.20,24.1
14:38:35,-0.89,-3.70,-10.27,24.1
14:38:35,-0.69,-0.82,-11.47,24.1
14:38:35,-0.13,-0.91,-10.48,24.1
14:38:35,0.27,-1.19,-9.58,24.1
14:38:35,0.34,1.16,-10.04,24.1
14:38:35,0.33,2.95,-10.18,24.1
14:38:35,0.44,1.92,-9.46,24.1
14:38:35,0.38,4.79,-9.68,24.1
14:38:35,0.76,5.34,-9.88,24.1
14:38:35,0.90,5.42,-10.01,24.1
14:38:35,0.75,1.62,-9.61,24.1
14:38:35,0.23,-0.28,-10.35,24.1
14:38:35,-0.57,-3.84,-11.31,24.1
14:38:35,-1.24,-5.49,-10.95,24.1
14:38:35,-1.05,-7.03,-8.93,24.1
14:38:35,-1.01,-6.15,-8.82,24.1
14:38:35,-0.84,-6.05,-9.13,24.1
14:38:35,-0.85,-2.44,-11.02,24.1
14:38:35,-0.42,-1.66,-10.71,24.1
14:38:35,0.24,-0.47,-10.37,24.1
14:38:35,0.38,0.12,-9.81,24.1
14:38:35,0.60,0.85,-9.79,24.1
14:38:35,0.52,2.90,-10.17,24.1
14:38:35,0.61,4.01,-9.84,24.1
14:38:35,0.75,4.24,-9.73,24.1
14:38:35,0.89,5.24,-10.08,24.1
14:38:35,0.99,3.78,-9.73,24.1
14:38:35,0.35,0.75,-9.94,24.1
14:38:35,-0.21,-2.88,-10.85,24.1
14:38:35,-1.05,-5.03,-11.30,24.1
14:38:35,-1.12,-6.37,-9.73,24.1
14:38:35,-0.85,-6.03,-8.79,24.1
14:38:35,-0.88,-7.25,-8.37,24.1
14:38:35,-0.99,-4.28,-10.22,24.1
14:38:35,-0.77,-1.37,-11.33,24.1
14:38:35,-0.11,-0.55,-10.66,24.1
14:38:35,0.21,-1.09,-9.49,24.1
14:38:35,0.37,1.13,-9.65,24.1
14:38:35,0.57,3.07,-10.19,24.1
14:38:35,0.43,2.08,-9.47,24.1
14:38:35,0.49,4.60,-9.48,24.1
14:38:35,0.76,4.89,-9.84,24.1
14:38:35,0.76,4.83,-10.07,24.1
14:38:35,0.62,1.15,-9.67,24.1
14:38:35,0.14,-0.10,-10.09,24.1
14:38:35,-0.72,-3.31,-11.32,24.1
14:38:35,-1.33,-5.35,-11.17,24.1
14:38:35,-1.11,-7.20,-9.08,24.1
14:38:35,-0.74,-6.97,-8.55,24.1
14:38:35,-0.99,-5.93,-9.17,24.1
14:38:35,-1.02,-1.97,-11.37,24.1
14:38:35,-0.61,-1.43,-10.98,24.1
14:38:35,0.17,-1.03,-10.28,24.1
14:38:35,0.45,-0.15,-9.76,24.1
14:38:35,0.41,1.79,-10.15,24.1
14:38:35,0.41,2.54,-9.89,24.1
14:38:35,0.32,3.84,-9.05,24.1
14:38:35,0.39,6.88,-9.05,24.1
14:38:35,0.92,8.81,-9.32,24.1
14:38:35,1.14,4.66,-8.82,24.1
14:38:35,0.87,-2.34,-10.80,24.1
14:38:35,-0.68,-7.99,-13.91,24.1
14:38:35,-1.56,-10.00,-11.60,24.1
14:38:35,-1.20,-9.09,-7.83,24.1
14:38:35,-1.12,-7.54,-8.17,24.1
14:38:35,-0.93,-4.68,-10.90,24.1
14:38:35,-0.48,-2.27,-12.17,24.1
14:38:35,-0.01,-0.76,-11.33,24.1
14:38:35,0.02,1.83,-10.07,24.1
14:38:35,-0.13,4.41,-8.10,24.1
14:38:35,-0.19,8.59,-6.16,24.1
14:38:35,0.84,13.12,-5.88,24.1
14:38:35,1.85,14.16,-6.69,24.1
14:38:35,3.49,-1.77,-10.35,24.1
14:38:35,1.87,-25.94,-21.32,24.1
14:38:35,-1.70,-14.49,-15.05,24.1
14:38:35,-1.18,-8.92,-7.00,24.1
14:38:35,-0.90,-4.33,-8.20,24.1
14:38:35,-0.86,-1.14,-10.63,24.1
14:38:35,-0.82,1.81,-11.02,24.1
14:38:35,-0.96,6.51,-9.12,24.1
14:38:36,-0.89,9.30,-4.42,24.1
14:38:36,-0.57,11.94,-0.33,24.1
14:38:36,0.43,18.02,-3.28,24.1
14:38:36,2.74,10.57,-12.47,24.1
14:38:36,2.13,-40.93,-27.52,24.1
14:38:36,-2.42,-19.61,-22.23,24.1
14:38:36,-0.46,-6.99,-9.60,24.1
14:38:36,-0.76,-2.13,-10.37,24.1
14:38:36,-0.81,4.16,-11.18,24.1
14:38:36,-0.92,8.10,-7.65,24.1
14:38:36,-0.67,10.04,-0.85,24.1
14:38:36,-0.96,8.00,6.27,24.1
14:38:36,-0.76,2.02,9.86,24.1
14:38:36,0.59,8.38,0.33,24.1
14:38:36,4.97,34.17,-33.89,24.1
14:38:36,3.13,-32.68,-23.94,24.1
14:38:36,0.96,-55.12,-38.19,24.1
14:38:36,0.42,-0.70,-12.05,24.1
14:38:36,-0.63,19.85,-6.55,24.1
14:38:36,-0.92,13.47,-2.71,24.1
14:38:36,-1.01,10.56,4.57,24.1
14:38:36,-0.81,3.98,10.30,24.1
14:38:36,-0.36,-2.66,10.68,24.1
14:38:36,1.31,-1.19,-0.22,24.1
14:38:36,4.54,38.47,-39.48,24.1
14:38:36,2.84,-6.41,-14.77,24.1
14:38:36,-1.34,-55.11,-26.85,24.1
14:38:36,-2.41,-25.11,-23.23,24.1
14:38:36,-0.61,17.15,-1.56,24.1
14:38:36,-2.00,37.54,8.16,24.1
14:38:36,-1.52,12.22,3.34,24.1
14:38:36,-1.95,25.24,-10.07,24.1
14:38:36,1.03,1.58,-8.04,24.1
14:38:36,4.04,-36.89,-27.31,24.1
14:38:36,3.69,-45.64,-29.91,24.1
14:38:36,-0.21,-2.43,-13.42,24.1
14:38:36,0.18,18.10,-6.30,24.1
14:38:36,-1.59,16.75,-0.83,24.1
14:38:36,-1.11,9.05,6.85,24.1
14:38:36,-0.62,2.23,11.60,24.1
14:38:36,-0.07,-4.09,9.62,24.1
14:38:36,1.63,26.64,-25.66,24.1
14:38:36,1.63,13.86,-24.60,24.1
14:38:36,0.65,-45.61,-24.15,24.1
14:38:36,1.85,-32.50,-28.02,24.1
14:38:36,0.78,7.94,-10.79,24.1
14:38:36,-1.21,37.69,4.16,24.1
14:38:36,-1.34,9.72,7.68,24.1
14:38:36,-1.00,6.43,8.07,24.1
14:38:36,-1.48,29.14,-15.24,24.1
14:38:36,0.10,6.69,-11.66,24.1
14:38:36,7.03,-30.83,-13.94,24.1
14:38:36,0.67,-72.33,-42.32,24.1
14:38:36,-1.80,-6.67,-17.97,24.1
14:38:36,-0.61,23.55,-4.79,24.1
14:38:36,-1.51,15.41,2.98,24.1
14:38:36,-1.00,7.66,9.11,24.1
14:38:36,-0.96,2.77,9.24,24.1
14:38:36,-1.51,30.64,-19.98,24.1
14:38:36,1.02,6.53,-15.73,24.1
14:38:36,7.79,-37.50,-15.12,24.1
14:38:36,3.72,-55.91,-37.98,24.1
14:38:36,-0.85,-0.68,-14.22,24.1
14:38:36,-1.91,31.89,-2.28,24.1
14:38:36,-0.39,13.28,3.86,24.1
14:38:36,-1.19,6.80,10.03,24.1
14:38:36,-1.04,4.11,6.13,24.1
14:38:36,-2.44,37.08,-27.14,24.1
14:38:36,1.11,-2.01,-11.62,24.1
14:38:36,5.66,-45.39,-21.61,24.1
14:38:36,3.93,-39.04,-33.00,24.1
14:38:36,-1.48,3.20,-11.56,24.1
14:38:36,-3.37,33.92,1.45,24.1
14:38:36,-1.14,12.45,4.68,24.1
14:38:36,-0.99,5.79,10.12,24.1
14:38:36,-0.79,8.47,2.37,24.1
14:38:36,-1.35,36.64,-26.58,24.1
14:38:36,3.09,-9.33,-11.72,24.1
14:38:36,3.19,-55.87,-31.49,24.1
14:38:36,-2.87,-27.46,-25.76,24.1
14:38:36,-1.24,5.97,-11.94,24.1
14:38:36,-1.57,36.34,2.36,24.1
14:38:36,-1.43,10.53,6.22,24.1
14:38:36,-0.79,4.76,10.36,24.1
14:38:36,-1.16,8.36,0.29,24.1
14:38:36,-2.90,34.10,-27.50,24.1
14:38:36,3.57,-15.41,-13.39,24.1
14:38:36,2.05,-68.06,-39.81,24.1
14:38:36,-4.83,-19.08,-21.55,24.1
14:38:36,-2.28,12.85,-8.13,24.1
14:38:36,-1.66,33.57,3.15,24.1
14:38:36,-1.13,9.37,7.39,24.1
14:38:36,-0.83,3.28,10.57,24.1
14:38:36,-1.02,11.56,-2.58,24.1
14:38:36,-1.16,31.63,-26.71,24.1
14:38:36,5.74,-18.74,-12.94,24.1
14:38:36,1.96,-71.58,-39.75,24.1
14:38:36,-4.79,-15.06,-19.20,24.1
14:38:36,-1.58,18.61,-4.39,24.1
14:38:36,-2.81,25.48,3.48,24.1
14:38:36,-0.88,8.48,8.67,24.1
14:38:36,-1.16,2.98,9.49,24.1
14:38:36,-3.39,27.68,-16.56,24.1
14:38:36,-0.27,9.86,-17.18,24.1
14:38:36,7.95,-33.67,-15.11,24.1
14:38:36,1.57,-69.05,-38.52,24.1
14:38:36,-1.61,-5.26,-16.64,24.1
14:38:36,0.05,23.37,-3.92,24.1
14:38:36,-1.75,16.23,4.68,24.1
14:38:36,-0.67,6.71,10.07,24.1
14:38:36,-0.72,6.98,4.28,24.1
14:38:36,-1.36,39.34,-28.66,24.1
14:38:36,1.75,-5.22,-10.34,24.1
14:38:36,4.51,-49.57,-23.02,24.1
14:38:36,2.68,-35.96,-30.23,24.1
14:38:36,0.60,3.71,-11.63,24.1
14:38:36,-0.98,36.60,1.97,24.1
14:38:36,-1.23,11.73,5.32,24.1
14:38:36,-0.91,6.68,9.29,24.1
14:38:36,-1.95,19.58,-5.84,24.1
14:38:36,-0.90,20.60,-18.54,24.1
14:38:36,3.36,-16.68,-10.35,24.1
14:38:36,2.21,-71.04,-41.25,24.1
14:38:36,-4.71,-19.05,-21.44,24.1
14:38:36,-1.23,14.28,-7.60,24.1
14:38:36,-1.98,31.93,2.18,24.1
14:38:36,-0.97,10.07,7.02,24.1
14:38:36,-0.97,4.76,9.62,24.1
14:38:36,-1.72,19.92,-8.00,24.1
14:38:36,-0.94,18.90,-18.68,24.1
14:38:36,3.42,-20.02,-11.12,24.1
14:38:36,1.80,-71.16,-39.54,24.1
14:38:36,-5.26,-15.32,-21.21,24.1
14:38:36,-0.61,17.78,-4.85,24.1
14:38:36,-2.68,26.62,3.29,24.1
14:38:36,-0.50,9.57,8.06,24.1
14:38:36,-1.22,7.34,6.68,24.1
14:38:36,-1.87,31.80,-18.82,24.1
14:38:36,0.62,1.60,-11.00,24.1
14:38:36,7.67,-37.47,-15.99,24.1
14:38:36,2.63,-58.98,-39.86,24.1
14:38:36,0.58,0.34,-14.57,24.1
14:38:36,0.26,27.42,-4.09,24.1
14:38:36,-0.46,13.83,3.39,24.1
14:38:36,-1.00,6.84,9.56,24.1
14:38:36,-0.57,4.48,7.25,24.1
14:38:36,-1.64,33.76,-25.70,24.1
14:38:36,1.81,-2.74,-12.43,24.1
14:38:36,6.33,-43.48,-20.09,24.1
14:38:36,1.89,-37.21,-32.76,24.1
14:38:36,-0.46,1.85,-13.50,24.1
14:38:36,-2.16,30.85,-0.10,24.1
14:38:36,-0.73,12.38,4.83,24.1
14:38:36,-0.52,5.51,10.06,24.1
14:38:36,-1.67,12.17,0.19,24.1
14:38:36,-3.43,32.60,-23.40,24.1
14:38:36,3.27,-14.16,-10.70,24.1
14:38:36,2.42,-56.94,-31.73,24.1
14:38:36,-3.26,-22.26,-25.07,24.1
14:38:36,-0.35,10.06,-10.75,24.1
14:38:36,-1.08,31.71,1.80,24.1
14:38:36,-1.11,9.98,6.24,24.1
14:38:36,-0.71,4.21,10.17,24.1
14:38:36,-1.32,16.96,-4.89,24.1
14:38:36,-2.80,25.81,-19.96,24.1
14:38:36,3.91,-19.91,-11.16,24.1
14:38:36,1.92,-65.78,-38.29,24.1
14:38:36,-4.20,-15.82,-21.96,24.1
14:38:36,0.26,15.55,-6.88,24.1
14:38:36,-1.40,30.46,2.75,24.1
14:38:36,-0.51,9.24,7.84,24.1
14:38:36,-0.45,5.18,8.85,24.1
14:38:36,-1.02,26.60,-13.60,24.1
14:38:36,0.05,8.81,-14.32,24.1
14:38:36,5.22,-29.51,-14.20,24.1
14:38:36,2.32,-74.72,-43.54,24.1
14:38:36,-0.02,-2.40,-18.27,24.1
14:38:36,0.12,18.97,-4.41,24.1
14:38:36,-1.56,18.39,2.63,24.1
14:38:36,-0.58,8.36,8.72,24.1
14:38:36,-0.44,5.46,7.52,24.1
14:38:36,-1.68,28.54,-17.64,24.1
14:38:36,-0.39,2.99,-13.98,24.1
14:38:36,5.26,-38.79,-16.44,24.1
14:38:36,2.28,-59.86,-40.72,24.1
14:38:36,0.03,0.74,-14.47,24.1
14:38:36,-1.70,26.75,-3.53,24.1
14:38:36,-0.45,14.56,3.74,24.1
14:38:36,-0.59,7.48,9.05,24.1
14:38:36,0.02,7.24,5.08,24.1
14:38:36,0.07,28.44,-18.95,24.1
14:38:36,1.84,-4.80,-14.20,24.1
14:38:36,3.51,-46.44,-25.07,24.1
14:38:36,0.00,-28.98,-31.32,24.1
14:38:36,-0.62,3.44,-13.23,24.1
14:38:36,-1.47,30.32,0.42,24.1
14:38:36,-0.97,12.15,5.28,24.1
14:38:36,-0.38,5.76,9.60,24.1
14:38:36,-0.18,5.18,4.37,24.1
14:38:36,-0.64,26.02,-20.31,24.1
14:38:36,1.93,-9.03,-18.55,24.1
14:38:36,0.01,-50.15,-30.72,24.1
14:38:36,-2.40,-17.76,-25.64,24.1
14:38:36,-0.76,9.14,-10.60,24.1
14:38:36,-1.26,30.26,2.16,24.1
14:38:36,-0.97,10.53,6.66,24.1
14:38:36,-0.74,3.39,10.34,24.1
14:38:36,-1.10,3.98,2.97,24.1
14:38:36,-2.51,28.48,-25.76,24.1
14:38:36,2.47,-17.31,-19.57,24.1
14:38:36,0.45,-57.04,-36.14,24.1
14:38:36,-3.29,-8.15,-21.37,24.1
14:38:36,-0.07,14.52,-6.62,24.1
14:38:36,-1.38,27.72,2.96,24.1
14:38:36,-1.01,8.92,7.99,24.1
14:38:36,-0.70,2.43,9.70,24.1
14:38:36,-0.80,12.25,-4.77,24.1
14:38:36,-0.05,18.79,-22.71,24.1
14:38:36,7.54,-29.72,-17.86,24.1
14:38:36,1.11,-64.83,-40.47,24.1
14:38:36,-1.33,-0.61,-17.11,24.1
14:38:36,-1.00,18.73,-4.59,24.1
14:38:36,-1.68,18.22,3.36,24.1
14:38:36,-0.81,7.47,8.97,24.1
14:38:36,-0.99,2.83,8.21,24.1
14:38:36,-2.66,21.22,-13.71,24.1
14:38:36,-0.73,3.83,-19.23,24.1
14:38:36,6.36,-42.13,-19.76,24.1
14:38:36,3.45,-38.84,-33.68,24.1
14:38:36,0.48,1.56,-14.70,24.1
14:38:36,-1.72,24.41,-2.34,24.1
14:38:36,-0.44,12.99,4.60,24.1
14:38:37,-0.38,4.72,10.22,24.1
14:38:37,0.22,0.10,8.17,24.1
14:38:37,-0.14,31.03,-26.49,24.1
14:38:37,2.09,-1.10,-16.38,24.1
14:38:37,7.54,-44.22,-16.90,24.1
14:38:37,2.81,-36.85,-26.87,24.1
14:38:37,-0.04,2.45,-11.55,24.1
14:38:37,-0.86,32.37,2.50,24.1
14:38:37,-0.99,10.65,7.05,24.1
14:38:37,-1.03,9.63,5.97,24.1
14:38:37,-3.73,29.16,-17.08,24.1
14:38:37,-0.72,-1.16,-9.58,24.1
14:38:37,5.55,-39.91,-17.29,24.1
14:38:37,3.53,-58.03,-39.49,24.1
14:38:37,0.12,0.25,-14.77,24.1
14:38:37,-1.52,19.99,-4.94,24.1
14:38:37,-0.57,14.27,2.77,24.1
14:38:37,-0.85,7.31,8.98,24.1
14:38:37,-0.43,3.03,8.73,24.1
14:38:37,-1.87,31.85,-23.65,24.1
14:38:37,0.30,3.87,-11.86,24.1
14:38:37,5.54,-30.19,-11.64,24.1
14:38:37,2.41,-73.19,-38.42,24.1
14:38:37,-1.26,-0.65,-19.66,24.1
14:38:37,-1.09,25.41,-3.98,24.1
14:38:37,-0.33,15.37,4.50,24.1
14:38:37,-0.80,8.66,8.15,24.1
14:38:37,-2.22,21.25,-5.44,24.1
14:38:37,-1.10,14.43,-12.87,24.1
14:38:37,4.32,-21.10,-10.21,24.1
14:38:37,1.29,-61.29,-38.59,24.1
14:38:37,-2.96,-9.23,-22.50,24.1
14:38:37,-0.28,10.09,-10.32,24.1
14:38:37,-0.45,25.98,0.32,24.1
14:38:37,-0.87,10.18,5.96,24.1
14:38:37,-0.54,3.46,10.61,24.1
14:38:37,-1.28,8.22,1.37,24.1
14:38:37,-4.08,33.05,-26.74,24.1
14:38:37,1.14,-11.01,-12.31,24.1
14:38:37,3.83,-49.35,-20.38,24.1
14:38:37,0.22,-23.00,-29.85,24.1
14:38:37,-0.78,8.43,-12.24,24.1
14:38:37,-0.61,33.00,2.86,24.1
14:38:37,-0.93,10.48,6.95,24.1
14:38:37,-0.90,8.48,6.43,24.1
14:38:37,-1.63,28.09,-15.20,24.1
14:38:37,0.69,-0.81,-10.33,24.1
14:38:37,6.56,-37.50,-16.92,24.1
14:38:37,3.18,-58.87,-40.59,24.1
14:38:37,-0.06,0.83,-16.11,24.1
14:38:37,-1.67,18.29,-5.23,24.1
14:38:37,-0.67,15.14,2.79,24.1
14:38:37,-0.58,6.94,9.16,24.1
14:38:37,-0.58,1.88,9.35,24.1
14:38:37,-1.57,27.63,-19.26,24.1
14:38:37,0.13,7.55,-14.84,24.1
14:38:37,4.41,-31.69,-13.91,24.1
14:38:37,0.97,-71.16,-37.46,24.1
14:38:37,-1.77,0.16,-18.32,24.1
14:38:37,-1.63,22.47,-4.13,24.1
14:38:37,-1.05,16.32,4.61,24.1
14:38:37,-0.64,7.76,8.42,24.1
14:38:37,-1.38,16.87,-2.54,24.1
14:38:37,-1.62,20.64,-16.59,24.1
14:38:37,2.79,-19.01,-10.39,24.1
14:38:37,-0.59,-56.32,-32.64,24.1
14:38:37,-3.68,-12.55,-24.32,24.1
14:38:37,-1.15,6.38,-11.30,24.1
14:38:37,-0.80,24.21,-0.44,24.1
14:38:37,-0.85,10.18,6.25,24.1
14:38:37,-0.47,3.23,10.80,24.1
14:38:37,-1.63,12.41,-1.44,24.1
14:38:37,-4.21,31.73,-22.47,24.1
14:38:37,1.61,-13.56,-10.64,24.1
14:38:37,2.35,-51.59,-22.23,24.1
14:38:37,-0.79,-19.32,-29.55,24.1
14:38:37,-0.20,10.00,-11.73,24.1
14:38:37,-0.79,31.67,2.98,24.1
14:38:37,-0.78,10.85,6.83,24.1
14:38:37,-0.90,9.86,5.83,24.1
14:38:37,-2.36,26.86,-14.35,24.1
14:38:37,0.22,-1.15,-9.66,24.1
14:38:37,5.68,-38.85,-17.04,24.1
14:38:37,2.71,-55.21,-42.93,24.1
14:38:37,0.80,0.96,-16.12,24.1
14:38:37,-0.95,18.13,-5.13,24.1
14:38:37,-0.76,15.72,2.71,24.1
14:38:37,-0.41,6.64,9.14,24.1
14:38:37,-0.29,0.65,10.09,24.1
14:38:37,-1.99,25.15,-17.62,24.1
14:38:37,-1.14,11.58,-16.11,24.1
14:38:37,5.45,-32.84,-13.62,24.1
14:38:37,1.83,-72.17,-39.62,24.1
14:38:37,-0.99,0.99,-18.08,24.1
14:38:37,-1.75,25.07,-3.51,24.1
14:38:37,-0.13,14.48,4.00,24.1
14:38:37,-0.39,7.58,8.78,24.1
14:38:37,-2.05,14.87,-1.26,24.1
14:38:37,-3.16,22.13,-16.76,24.1
14:38:37,2.80,-17.30,-10.63,24.1
14:38:37,0.78,-56.22,-34.02,24.1
14:38:37,-3.88,-12.37,-25.53,24.1
14:38:37,-0.42,9.16,-10.93,24.1
14:38:37,-0.02,25.70,-0.11,24.1
14:38:37,-0.97,10.24,6.11,24.1
14:38:37,-0.31,3.02,10.92,24.1
14:38:37,-0.93,5.50,3.11,24.1
14:38:37,-4.57,31.94,-27.85,24.1
14:38:37,0.58,-9.28,-13.47,24.1
14:38:37,4.23,-49.72,-20.86,24.1
14:38:37,0.35,-21.55,-29.84,24.1
14:38:37,-0.59,8.46,-12.04,24.1
14:38:37,-0.63,31.88,2.70,24.1
14:38:37,-0.71,10.78,6.91,24.1
14:38:37,-0.47,6.80,7.46,24.1
14:38:37,-2.01,22.93,-11.22,24.1
14:38:37,-0.29,4.19,-12.89,24.1
14:38:37,6.25,-36.54,-16.41,24.1
14:38:37,2.24,-61.22,-42.11,24.1
14:38:37,0.14,1.06,-16.57,24.1
14:38:37,-0.56,17.42,-5.44,24.1
14:38:37,-1.62,19.12,2.94,24.1
14:38:37,-0.58,7.28,8.69,24.1
14:38:37,-0.46,1.30,9.82,24.1
14:38:37,-1.83,15.27,-8.02,24.1
14:38:37,-2.51,20.45,-20.60,24.1
14:38:37,3.84,-29.91,-15.05,24.1
14:38:37,1.92,-63.09,-38.89,24.1
14:38:37,-1.64,0.89,-19.50,24.1
14:38:37,-1.14,19.64,-4.28,24.1
14:38:37,-1.46,17.80,3.90,24.1
14:38:37,-0.70,7.50,8.73,24.1
14:38:37,-1.07,7.01,4.48,24.1
14:38:37,-2.12,24.74,-17.40,24.1
14:38:37,1.97,-11.14,-14.63,24.1
14:38:37,3.75,-50.03,-29.16,24.1
14:38:37,-2.32,-12.71,-27.33,24.1
14:38:37,-1.29,3.88,-12.81,24.1
14:38:37,-1.68,20.19,-1.93,24.1
14:38:37,-0.63,11.52,5.16,24.1
14:38:37,-0.26,4.03,10.34,24.1
14:38:37,-0.41,-0.62,7.71,24.1
14:38:37,-1.20,20.07,-16.66,24.1
14:38:37,0.22,7.33,-22.58,24.1
14:38:37,6.53,-43.90,-19.78,24.1
14:38:37,2.55,-31.10,-32.31,24.1
14:38:37,-0.17,4.17,-14.66,24.1
14:38:37,-1.15,25.78,-0.32,24.1
14:38:37,-0.40,11.01,6.59,24.1
14:38:37,-0.37,3.91,9.44,24.1
14:38:37,-0.53,8.82,-0.96,24.1
14:38:37,-0.65,21.01,-22.20,24.1
14:38:37,5.38,-30.39,-19.57,24.1
14:38:37,1.17,-58.88,-39.29,24.1
14:38:37,-0.82,1.20,-17.93,24.1
14:38:37,0.50,14.36,-7.35,24.1
14:38:37,-0.12,24.10,3.13,24.1
14:38:37,-0.37,6.95,8.87,24.1
14:38:37,-0.16,-0.91,11.43,24.1
14:38:37,-0.43,5.83,-1.26,24.1
14:38:37,-4.08,33.46,-31.03,24.1
14:38:37,1.69,-21.04,-15.52,24.1
14:38:37,-0.52,-60.79,-32.11,24.1
14:38:37,-3.66,-3.81,-20.86,24.1
14:38:37,-0.03,17.54,-5.25,24.1
14:38:37,-1.64,24.32,4.49,24.1
14:38:37,-0.50,8.10,8.62,24.1
14:38:37,0.10,9.12,3.24,24.1
14:38:37,-0.73,29.12,-20.65,24.1
14:38:37,2.48,-13.47,-12.32,24.1
14:38:37,-1.18,-53.14,-28.18,24.1
14:38:37,-2.71,-16.31,-25.52,24.1
14:38:37,-1.28,3.29,-10.91,24.1
14:38:37,-1.89,19.16,-0.46,24.1
14:38:37,-0.57,10.17,6.63,24.1
14:38:37,-0.49,3.31,10.50,24.1
14:38:37,-0.43,7.45,0.94,24.1
14:38:37,-2.49,30.27,-25.42,24.1
14:38:37,1.84,-14.15,-13.42,24.1
14:38:37,-1.88,-56.01,-26.25,24.1
14:38:37,-3.76,-12.41,-27.08,24.1
14:38:37,-0.33,11.67,-10.62,24.1
14:38:37,-0.99,30.35,3.09,24.1
14:38:37,-0.68,10.53,7.11,24.1
14:38:37,-0.34,6.19,7.76,24.1
14:38:37,-0.59,20.12,-10.15,24.1
14:38:37,0.65,4.26,-15.14,24.1
14:38:37,4.61,-41.58,-18.43,24.1
14:38:37,2.18,-45.42,-40.46,24.1
14:38:37,0.75,2.23,-16.12,24.1
14:38:37,-0.51,16.35,-5.47,24.1
14:38:37,-0.89,20.79,3.68,24.1
14:38:37,-0.51,7.35,9.07,24.1
14:38:37,-0.37,0.13,10.29,24.1
14:38:37,-0.49,12.41,-6.97,24.1
14:38:37,-0.93,24.92,-23.21,24.1
14:38:37,4.18,-30.97,-16.48,24.1
14:38:37,1.21,-58.32,-37.59,24.1
14:38:37,-0.90,3.09,-19.00,24.1
14:38:37,-0.94,19.04,-4.27,24.1
14:38:37,-1.45,17.70,4.66,24.1
14:38:37,-0.66,6.67,9.30,24.1
14:38:37,-0.69,6.81,3.74,24.1
14:38:37,-1.57,26.26,-20.02,24.1
14:38:37,3.00,-16.91,-15.51,24.1
14:38:37,-1.36,-56.23,-34.64,24.1
14:38:37,-3.87,-5.02,-22.61,24.1
14:38:37,-1.51,5.41,-11.89,24.1
14:38:37,-1.71,18.48,-1.10,24.1
14:38:37,-0.70,10.85,6.30,24.1
14:38:37,-0.39,2.62,10.91,24.1
14:38:37,-0.11,-0.71,6.71,24.1
14:38:37,-0.76,26.42,-27.76,24.1
14:38:37,1.66,-1.97,-18.98,24.1
14:38:37,3.74,-48.16,-20.18,24.1
14:38:37,-0.13,-18.36,-28.99,24.1
14:38:37,-1.55,6.51,-12.32,24.1
14:38:37,-1.15,27.87,1.56,24.1
14:38:37,-1.10,10.13,7.32,24.1
14:38:37,-0.46,4.78,8.50,24.1
14:38:37,-0.29,20.70,-10.97,24.1
14:38:37,1.27,4.70,-17.11,24.1
14:38:37,4.60,-42.92,-18.10,24.1
14:38:37,1.99,-45.30,-36.43,24.1
14:38:37,0.23,2.61,-15.60,24.1
14:38:37,0.05,14.48,-6.12,24.1
14:38:37,-0.40,18.65,3.37,24.1
14:38:37,-0.57,7.41,9.34,24.1
14:38:37,-0.01,0.31,10.16,24.1
14:38:37,0.45,17.50,-12.55,24.1
14:38:37,-0.76,21.47,-20.11,24.1
14:38:37,3.52,-31.55,-14.84,24.1
14:38:37,0.43,-59.77,-35.09,24.1
14:38:38,-1.47,2.82,-18.39,24.1
14:38:38,0.10,17.10,-4.85,24.1
14:38:38,-1.43,23.56,5.04,24.1
14:38:38,-0.50,7.91,8.66,24.1
14:38:38,-0.20,9.95,1.43,24.1
14:38:38,-1.44,24.27,-19.39,24.1
14:38:38,2.78,-20.05,-13.85,24.1
14:38:38,-3.31,-55.52,-33.41,24.1
14:38:38,-3.30,-4.69,-22.02,24.1
14:38:38,-1.14,3.27,-12.27,24.1
14:38:38,-1.21,18.19,-1.65,24.1
14:38:38,-0.78,14.13,6.31,24.1
14:38:38,-0.57,4.15,10.70,24.1
14:38:38,0.73,1.37,5.87,24.1
14:38:38,0.40,27.24,-29.07,24.1
14:38:38,2.51,-5.04,-15.77,24.1
14:38:38,3.18,-46.66,-19.38,24.1
14:38:38,0.53,-17.80,-30.29,24.1
14:38:38,-1.27,4.77,-13.44,24.1
14:38:38,-2.20,22.07,0.30,24.1
14:38:38,-0.62,11.34,6.85,24.1
14:38:38,-0.19,6.18,8.40,24.1
14:38:38,-0.37,20.20,-10.03,24.1
14:38:38,0.55,4.42,-15.59,24.1
14:38:38,3.86,-43.64,-19.59,24.1
14:38:38,1.11,-41.12,-36.38,24.1
14:38:38,-0.02,2.50,-15.56,24.1
14:38:38,0.07,12.89,-6.89,24.1
14:38:38,-0.88,18.40,2.79,24.1
14:38:38,-0.07,7.95,9.25,24.1
14:38:38,0.99,0.38,11.04,24.1
14:38:38,2.65,12.02,-9.19,24.1
14:38:38,1.09,30.04,-19.45,24.1
14:38:38,3.36,-28.06,-14.07,24.1
14:38:38,-1.98,-58.45,-37.24,24.1
14:38:38,-2.72,5.89,-18.50,24.1
14:38:38,0.09,16.70,-4.66,24.1
14:38:38,-0.40,16.82,5.81,24.1
14:38:38,0.25,7.32,9.62,24.1
14:38:38,0.48,10.28,-1.89,24.1
14:38:38,1.32,21.96,-17.74,24.1
14:38:38,2.76,-32.95,-16.36,24.1
14:38:38,-3.00,-57.18,-41.50,24.1
14:38:38,-0.74,0.51,-15.52,24.1
14:38:38,-0.49,8.81,-7.21,24.1
14:38:38,-0.64,12.19,0.83,24.1
14:38:38,-0.41,8.74,8.71,24.1
14:38:38,-0.42,2.99,10.82,24.1
14:38:38,-1.20,8.07,-13.01,24.1
14:38:38,-0.89,29.63,-14.32,24.1
14:38:38,0.84,-34.49,-13.71,24.1
14:38:38,-4.55,-57.17,-46.69,24.1
14:38:38,-0.73,5.15,-13.49,24.1
14:38:38,0.52,6.99,-4.97,24.1
14:38:38,1.47,10.23,3.77,24.1
14:38:38,1.39,8.92,9.44,24.1
14:38:38,0.97,9.82,1.99,24.1
14:38:38,1.71,22.91,-20.01,24.1
14:38:38,-1.21,-0.60,-6.24,24.1
14:38:38,-1.34,-49.18,-28.24,24.1
14:38:38,-2.63,-12.83,-30.56,24.1
14:38:38,-0.67,2.73,-11.01,24.1
14:38:38,1.35,6.15,-3.47,24.1
14:38:38,1.63,8.59,5.15,24.1
14:38:38,1.63,8.23,9.45,24.1
14:38:38,0.85,13.18,-2.01,24.1
14:38:38,-0.42,22.94,-17.86,24.1
14:38:38,-1.11,-10.69,-5.61,24.1
14:38:38,0.01,-46.09,-19.49,24.1
14:38:38,-3.82,-17.95,-39.70,24.1
14:38:38,-2.08,3.88,-14.10,24.1
14:38:38,0.34,6.51,-3.30,24.1
14:38:38,0.83,7.17,5.61,24.1
14:38:38,0.81,8.85,8.85,24.1
14:38:38,0.73,17.04,-7.09,24.1
14:38:38,0.80,20.56,-10.73,24.1
14:38:38,-0.37,-17.16,-7.48,24.1
14:38:38,1.35,-42.95,-21.18,24.1
14:38:38,-2.66,-8.63,-35.02,24.1
14:38:38,-0.98,5.65,-14.08,24.1
14:38:38,0.42,7.37,-2.43,24.1
14:38:38,0.83,8.57,6.65,24.1
14:38:38,1.33,11.91,7.84,24.1
14:38:38,1.99,23.81,-11.33,24.1
14:38:38,0.29,14.93,-6.85,24.1
14:38:38,-1.12,-32.34,-11.76,24.1
14:38:38,-5.25,-43.62,-41.41,24.1
14:38:38,-3.28,3.87,-20.44,24.1
14:38:38,-0.29,5.83,-7.95,24.1
14:38:38,0.54,8.29,1.65,24.1
14:38:38,1.18,9.32,8.75,24.1
14:38:38,1.63,13.42,5.82,24.1
14:38:38,5.41,23.52,-19.28,24.1
14:38:38,1.48,2.59,-5.57,24.1
14:38:38,4.85,-50.41,-28.39,24.1
14:38:38,-5.77,-7.96,-27.75,24.1
14:38:38,-2.40,-1.41,-10.72,24.1
14:38:38,-0.97,3.92,-4.51,24.1
14:38:38,0.15,9.55,2.83,24.1
14:38:38,0.73,12.31,7.86,24.1
14:38:38,1.10,17.12,0.36,24.1
14:38:38,4.49,24.42,-15.56,24.1
14:38:38,1.65,-16.94,-6.99,24.1
14:38:38,1.75,-49.21,-35.54,24.1
14:38:38,-6.51,-5.00,-23.91,24.1
14:38:38,-2.34,0.16,-10.27,24.1
14:38:38,-1.20,5.21,-3.62,24.1
14:38:38,-0.49,9.88,4.01,24.1
14:38:38,0.01,11.41,8.78,24.1
14:38:38,0.01,16.66,-2.13,24.1
14:38:38,2.57,24.09,-15.20,24.1
14:38:38,1.95,-23.12,-8.59,24.1
14:38:38,0.92,-50.42,-41.43,24.1
14:38:38,-5.47,-3.91,-20.12,24.1
14:38:38,-2.11,-0.61,-8.89,24.1
14:38:38,-1.02,5.38,-2.42,24.1
14:38:38,-0.59,10.11,5.02,24.1
14:38:38,0.01,13.44,7.39,24.1
14:38:38,1.51,23.69,-12.37,24.1
14:38:38,1.56,22.96,-2.70,24.1
14:38:38,3.20,-35.75,-14.13,24.1
14:38:38,-3.34,-47.30,-47.64,24.1
14:38:38,-4.51,-2.28,-15.59,24.1
14:38:38,-1.86,1.29,-6.95,24.1
14:38:38,-1.25,6.98,0.46,24.1
14:38:38,-0.25,11.04,6.86,24.1
14:38:38,0.29,17.50,3.99,24.1
14:38:38,2.97,27.67,-14.79,24.1
14:38:38,2.71,6.40,-2.91,24.1
14:38:38,9.06,-50.05,-29.76,24.1
14:38:38,-4.97,-14.32,-29.98,24.1
14:38:38,-2.54,-4.81,-9.40,24.1
14:38:38,-1.07,2.05,-4.71,24.1
14:38:38,-0.13,9.17,1.26,24.1
14:38:38,0.36,15.26,5.45,24.1
14:38:38,0.32,20.71,-0.58,24.1
14:38:38,1.28,24.65,-9.16,24.1
14:38:38,2.45,-9.26,-8.27,24.1
14:38:38,2.74,-47.95,-41.37,24.1
14:38:38,-5.51,-8.20,-20.20,24.1
14:38:38,-1.95,-2.68,-8.20,24.1
14:38:38,-1.01,4.50,-3.89,24.1
14:38:38,-0.44,10.12,2.62,24.1
14:38:38,-0.27,14.16,7.59,24.1
14:38:38,-0.34,20.20,1.24,24.1
14:38:38,1.79,23.38,-15.62,24.1
14:38:38,4.21,-27.35,-12.89,24.1
14:38:38,-1.60,-49.10,-49.68,24.1
14:38:38,-3.44,-7.42,-11.02,24.1
14:38:38,-0.88,-1.99,-6.00,24.1
14:38:38,-0.09,5.71,-2.78,24.1
14:38:38,0.48,12.85,3.05,24.1
14:38:38,0.53,17.15,5.61,24.1
14:38:38,0.20,21.02,-7.40,24.1
14:38:38,1.35,19.94,-6.92,24.1
14:38:38,4.60,-45.92,-30.38,24.1
14:38:38,-3.96,-33.02,-28.57,24.1
14:38:38,-0.78,-6.91,-6.51,24.1
14:38:38,0.36,0.14,-6.01,24.1
14:38:38,0.64,8.42,-2.73,24.1
14:38:38,0.77,14.59,2.61,24.1
14:38:38,0.17,17.93,4.51,24.1
14:38:38,-0.93,19.32,-8.65,24.1
14:38:38,1.29,15.52,-8.75,24.1
14:38:38,2.07,-50.75,-43.47,24.1
14:38:38,-4.19,-15.17,-17.31,24.1
14:38:38,-1.10,-5.54,-6.47,24.1
14:38:38,0.00,2.20,-6.04,24.1
14:38:38,0.45,10.45,-2.08,24.1
14:38:38,0.36,14.98,4.03,24.1
14:38:38,0.11,16.43,5.69,24.1
14:38:38,-0.27,20.32,-11.44,24.1
14:38:38,4.28,4.26,-14.73,24.1
14:38:38,-3.88,-47.78,-48.31,24.1
14:38:38,-3.32,-10.24,-9.15,24.1
14:38:38,-1.16,-3.51,-5.80,24.1
14:38:38,-0.20,4.74,-5.39,24.1
14:38:38,0.17,12.73,-1.27,24.1
14:38:38,0.25,15.88,4.28,24.1
14:38:38,0.39,17.46,2.58,24.1
14:38:38,3.39,20.68,-15.84,24.1
14:38:38,6.74,-43.56,-31.61,24.1
14:38:38,-4.73,-33.96,-24.99,24.1
14:38:38,-2.12,-9.23,-4.32,24.1
14:38:38,-0.90,-1.40,-6.21,24.1
14:38:38,0.06,9.04,-6.51,24.1
14:38:38,0.33,15.84,-2.06,24.1
14:38:38,0.44,19.39,1.20,24.1
14:38:38,0.65,18.37,-4.88,24.1
14:38:38,6.64,-1.41,-15.29,24.1
14:38:38,-2.03,-44.06,-37.77,24.1
14:38:38,-3.87,-14.21,-6.22,24.1
14:38:38,-1.63,-5.44,-5.84,24.1
14:38:38,-0.33,5.83,-10.30,24.1
14:38:38,0.02,13.34,-7.91,24.1
14:38:38,0.00,15.67,-1.46,24.1
14:38:38,0.84,17.69,0.11,24.1
14:38:38,2.66,13.78,-9.35,24.1
14:38:38,2.62,-35.60,-28.97,24.1
14:38:38,-5.56,-22.90,-14.70,24.1
14:38:38,-3.03,-10.96,-4.67,24.1
14:38:38,-0.62,0.15,-10.77,24.1
14:38:38,0.18,8.04,-11.55,24.1
14:38:38,-0.10,12.92,-7.00,24.1
14:38:38,0.17,15.16,-0.38,24.1
14:38:38,1.45,16.88,-1.16,24.1
14:38:38,5.68,4.95,-14.62,24.1
14:38:38,0.32,-35.73,-27.83,24.1
14:38:38,-4.89,-17.84,-8.57,24.1
14:38:38,-2.52,-7.50,-6.80,24.1
14:38:38,-0.45,2.40,-11.88,24.1
14:38:38,0.09,9.63,-11.28,24.1
14:38:38,0.14,13.84,-5.63,24.1
14:38:38,0.63,14.07,0.30,24.1
14:38:38,2.07,12.16,-3.10,24.1
14:38:38,3.75,-7.94,-23.18,24.1
14:38:38,-4.69,-26.61,-16.97,24.1
14:38:38,-2.99,-14.65,-4.22,24.1
14:38:38,-0.26,-3.65,-9.54,24.1
14:38:38,0.31,4.69,-12.87,24.1
14:38:38,-0.07,11.98,-10.02,24.1
14:38:38,-0.32,14.99,-3.60,24.1
14:38:38,0.18,13.40,-0.06,24.1
14:38:38,1.63,6.89,-9.72,24.1
14:38:38,-0.03,-20.06,-28.07,24.1
14:38:38,-2.82,-22.65,-10.24,24.1
14:38:38,-1.11,-12.23,-5.13,24.1
14:38:38,0.69,-1.37,-11.46,24.1
14:38:38,0.58,6.70,-12.70,24.1
14:38:38,-0.03,12.91,-8.47,24.1
14:38:38,-0.30,13.55,-1.84,24.1
14:38:38,0.90,13.28,-1.65,24.1
14:38:38,3.78,2.24,-15.65,24.1
14:38:38,-0.89,-26.16,-23.85,24.1
14:38:39,-2.57,-19.75,-6.08,24.1
14:38:39,-0.52,-9.71,-7.15,24.1
14:38:39,0.86,0.67,-12.99,24.1
14:38:39,0.50,7.45,-11.90,24.1
14:38:39,-0.10,12.76,-7.26,24.1
14:38:39,-0.45,13.78,-0.78,24.1
14:38:39,0.18,13.50,-3.10,24.1
14:38:39,1.92,-1.88,-20.79,24.1
14:38:39,-2.14,-27.67,-19.59,24.1
14:38:39,-2.05,-17.06,-4.33,24.1
14:38:39,0.10,-6.93,-8.74,24.1
14:38:39,0.91,2.59,-13.63,24.1
14:38:39,0.44,8.83,-11.31,24.1
14:38:39,-0.07,13.64,-5.48,24.1
14:38:39,-0.02,14.41,-0.97,24.1
14:38:39,0.95,12.44,-6.54,24.1
14:38:39,1.13,-11.97,-23.71,24.1
14:38:39,-2.85,-25.26,-13.80,24.1
14:38:39,-1.32,-15.30,-4.14,24.1
14:38:39,0.50,-4.16,-11.15,24.1
14:38:39,0.92,3.37,-13.60,24.1
14:38:39,0.41,9.43,-9.87,24.1
14:38:39,-0.13,13.51,-4.14,24.1
14:38:39,-0.16,14.75,-1.35,24.1
14:38:39,0.50,12.01,-10.26,24.1
14:38:39,-0.83,-20.46,-23.48,24.1
14:38:39,-2.35,-23.08,-10.05,24.1
14:38:39,-0.29,-12.88,-5.86,24.1
14:38:39,1.26,-2.89,-12.33,24.1
14:38:39,1.05,3.64,-13.02,24.1
14:38:39,0.16,10.54,-9.18,24.1
14:38:39,-0.34,13.49,-3.08,24.1
14:38:39,-0.16,15.90,-2.20,24.1
14:38:39,0.58,11.18,-12.08,24.1
14:38:39,-0.87,-26.69,-23.29,24.1
14:38:39,-2.64,-21.30,-8.90,24.1
14:38:39,0.16,-11.87,-6.53,24.1
14:38:39,1.54,-1.43,-12.76,24.1
14:38:39,1.45,5.73,-12.82,24.1
14:38:39,0.36,11.75,-8.26,24.1
14:38:39,-0.13,13.78,-2.06,24.1
14:38:39,-0.24,17.11,-2.74,24.1
14:38:39,0.17,7.38,-14.54,24.1
14:38:39,-2.69,-30.27,-22.39,24.1
14:38:39,-2.55,-19.06,-7.44,24.1
14:38:39,0.51,-9.56,-7.25,24.1
14:38:39,1.72,-0.43,-12.36,24.1
14:38:39,1.05,7.19,-12.14,24.1
14:38:39,0.30,11.88,-7.00,24.1
14:38:39,-0.30,13.89,-1.72,24.1
14:38:39,-0.31,17.41,-5.71,24.1
14:38:39,-0.11,-0.98,-17.29,24.1
14:38:39,-2.68,-30.31,-18.48,24.1
14:38:39,-1.38,-16.40,-6.41,24.1
14:38:39,0.96,-8.55,-8.92,24.1
14:38:39,1.59,1.35,-13.22,24.1
14:38:39,0.88,7.65,-11.18,24.1
14:38:39,0.22,11.79,-6.10,24.1
14:38:39,-0.50,14.22,-1.23,24.1
14:38:39,-0.59,16.54,-5.51,24.1
14:38:39,-0.26,-3.62,-20.21,24.1
14:38:39,-2.40,-29.38,-18.12,24.1
14:38:39,-0.73,-15.74,-5.48,24.1
14:38:39,1.39,-7.06,-8.95,24.1
14:38:39,1.40,2.40,-13.27,24.1
14:38:39,0.58,8.59,-10.81,24.1
14:38:39,-0.02,13.49,-5.54,24.1
14:38:39,-0.37,13.96,-1.07,24.1
14:38:39,-0.64,12.96,-6.62,24.1
14:38:39,-0.92,-9.38,-23.67,24.1
14:38:39,-1.90,-26.84,-14.87,24.1
14:38:39,-0.07,-15.72,-4.20,24.1
14:38:39,1.57,-5.03,-11.69,24.1
14:38:39,1.20,4.00,-13.52,24.1
14:38:39,0.21,10.32,-10.17,24.1
14:38:39,-0.39,13.89,-3.81,24.1
14:38:39,-1.04,13.69,-0.90,24.1
14:38:39,-1.06,11.41,-10.10,24.1
14:38:39,-1.81,-21.23,-25.76,24.1
14:38:39,-1.10,-24.63,-9.88,24.1
14:38:39,0.86,-12.72,-5.03,24.1
14:38:39,1.91,-1.74,-12.14,24.1
14:38:39,1.29,5.16,-13.11,24.1
14:38:39,0.35,11.45,-9.08,24.1
14:38:39,-0.50,13.38,-2.58,24.1
14:38:39,-1.03,13.50,-0.74,24.1
14:38:39,-1.69,10.26,-13.21,24.1
14:38:39,-2.42,-26.56,-25.48,24.1
14:38:39,-0.95,-21.68,-7.81,24.1
14:38:39,1.18,-10.48,-5.76,24.1
14:38:39,1.90,-1.16,-12.26,24.1
14:38:39,1.07,5.82,-12.66,24.1
14:38:39,0.17,11.55,-8.10,24.1
14:38:39,-0.77,12.94,-1.59,24.1
14:38:39,-1.21,14.74,-1.85,24.1
14:38:39,-1.08,8.38,-16.29,24.1
14:38:39,-1.73,-31.46,-23.30,24.1
14:38:39,-0.78,-19.11,-7.02,24.1
14:38:39,1.12,-9.40,-7.15,24.1
14:38:39,1.85,0.10,-12.62,24.1
14:38:39,1.18,6.39,-11.72,24.1
14:38:39,0.14,11.45,-6.80,24.1
14:38:39,-0.34,14.03,-0.98,24.1
14:38:39,-0.48,15.98,-4.01,24.1
14:38:39,0.23,1.15,-19.52,24.1
14:38:39,-1.83,-32.65,-19.88,24.1
14:38:39,-1.06,-16.56,-6.44,24.1
14:38:39,0.89,-7.44,-8.81,24.1
14:38:39,1.46,1.28,-12.69,24.1
14:38:39,0.77,7.79,-10.70,24.1
14:38:39,-0.10,12.44,-5.21,24.1
14:38:39,-0.63,14.18,-0.55,24.1
14:38:39,-0.06,16.18,-6.88,24.1
14:38:39,1.13,-8.37,-21.76,24.1
14:38:39,-2.73,-28.56,-16.49,24.1
14:38:39,-1.06,-14.57,-5.77,24.1
14:38:39,1.08,-4.83,-10.39,24.1
14:38:39,1.26,3.07,-12.74,24.1
14:38:39,0.49,9.13,-9.62,24.1
14:38:39,-0.28,13.00,-3.94,24.1
14:38:39,-0.06,13.39,-0.79,24.1
14:38:39,0.98,13.67,-10.31,24.1
14:38:39,-0.14,-19.16,-23.58,24.1
14:38:39,-2.79,-24.03,-10.94,24.1
14:38:39,0.00,-11.96,-6.40,24.1
14:38:39,1.44,-2.18,-11.91,24.1
14:38:39,1.07,4.15,-12.41,24.1
14:38:39,-0.04,10.49,-8.70,24.1
14:38:39,-0.61,12.92,-2.89,24.1
14:38:39,-0.31,14.48,-2.18,24.1
14:38:39,0.57,11.34,-14.60,24.1
14:38:39,-1.98,-27.54,-21.73,24.1
14:38:39,-2.36,-20.27,-7.79,24.1
14:38:39,0.42,-10.93,-7.42,24.1
14:38:39,1.74,-1.31,-12.83,24.1
14:38:39,1.08,5.98,-12.20,24.1
14:38:39,0.30,12.13,-7.84,24.1
14:38:39,-0.06,13.44,-2.19,24.1
14:38:39,0.10,15.62,-3.78,24.1
14:38:39,0.76,4.84,-17.35,24.1
14:38:39,-2.56,-29.90,-19.64,24.1
14:38:39,-1.99,-17.93,-6.44,24.1
14:38:39,0.64,-9.16,-8.35,24.1
14:38:39,1.55,0.17,-13.00,24.1
14:38:39,0.99,7.57,-11.67,24.1
14:38:39,0.24,12.69,-6.64,24.1
14:38:39,-0.39,14.75,-2.00,24.1
14:38:39,-0.30,15.68,-5.37,24.1
14:38:39,-0.20,-3.29,-19.90,24.1
14:38:39,-2.80,-28.83,-16.53,24.1
14:38:39,-0.87,-16.84,-4.96,24.1
14:38:39,1.24,-8.08,-9.26,24.1
14:38:39,1.57,1.99,-13.30,24.1
14:38:39,0.85,8.44,-10.85,24.1
14:38:39,-0.04,13.09,-5.73,24.1
14:38:39,-0.54,15.93,-2.55,24.1
14:38:39,-0.54,13.85,-8.24,24.1
14:38:39,-0.69,-13.06,-21.12,24.1
14:38:39,-2.33,-24.51,-12.32,24.1
14:38:39,0.04,-15.09,-5.57,24.1
14:38:39,1.90,-5.79,-11.34,24.1
14:38:39,1.41,2.52,-13.08,24.1
14:38:39,0.20,9.05,-9.82,24.1
14:38:39,-0.39,13.91,-4.64,24.1
14:38:39,-0.34,17.48,-3.49,24.1
14:38:39,-0.43,8.69,-12.32,24.1
14:38:39,-1.61,-22.85,-20.55,24.1
14:38:39,-1.74,-20.78,-8.48,24.1
14:38:39,0.76,-13.34,-7.00,24.1
14:38:39,1.74,-2.88,-12.87,24.1
14:38:39,0.78,4.06,-12.44,24.1
14:38:39,0.28,11.20,-8.90,24.1
14:38:39,-0.42,14.77,-3.27,24.1
14:38:39,-0.86,16.72,-3.50,24.1
14:38:39,-0.67,7.57,-13.23,24.1
14:38:39,-1.77,-26.77,-21.12,24.1
14:38:39,-1.60,-19.52,-7.49,24.1
14:38:39,1.12,-12.28,-7.28,24.1
14:38:39,1.68,-2.26,-13.02,24.1
14:38:39,0.80,6.01,-12.12,24.1
14:38:39,-0.04,12.29,-7.72,24.1
14:38:39,-0.51,15.75,-3.02,24.1
14:38:39,-0.72,17.56,-5.08,24.1
14:38:39,-0.21,0.58,-15.59,24.1
14:38:39,-2.16,-28.82,-18.57,24.1
14:38:39,-1.27,-17.62,-6.43,24.1
14:38:39,1.36,-11.22,-8.55,24.1
14:38:39,1.43,-1.08,-13.18,24.1
14:38:39,0.60,6.32,-11.59,24.1
14:38:39,-0.05,13.17,-7.42,24.1
14:38:39,-0.82,16.85,-3.23,24.1
14:38:39,-0.69,17.35,-6.26,24.1
14:38:39,0.27,-4.77,-16.49,24.1
14:38:39,-2.18,-28.26,-17.08,24.1
14:38:39,-1.12,-16.82,-6.24,24.1
14:38:39,0.94,-9.72,-9.13,24.1
14:38:39,1.17,0.07,-13.20,24.1
14:38:39,0.22,7.58,-11.02,24.1
14:38:39,-0.71,13.38,-6.47,24.1
14:38:39,-0.66,16.87,-2.52,24.1
14:38:39,-0.17,16.25,-5.91,24.1
14:38:39,1.15,-7.39,-19.08,24.1
14:38:39,-2.01,-29.16,-16.41,24.1
14:38:39,-0.99,-16.09,-5.74,24.1
14:38:39,1.10,-7.90,-9.57,24.1
14:38:39,1.20,1.22,-13.21,24.1
14:38:39,0.31,8.64,-10.30,24.1
14:38:39,-0.36,14.20,-5.42,24.1
14:38:39,-0.71,17.55,-2.24,24.1
14:38:39,0.25,15.25,-8.16,24.1
14:38:39,1.08,-15.80,-20.91,24.1
14:38:39,-2.26,-26.20,-13.60,24.1
14:38:39,-0.63,-15.05,-5.58,24.1
14:38:39,1.10,-5.78,-11.09,24.1
14:38:39,1.14,2.47,-13.02,24.1
14:38:39,0.14,9.01,-9.50,24.1
14:38:39,-0.69,14.70,-4.29,24.1
14:38:39,-0.48,18.88,-3.43,24.1
14:38:39,0.55,13.72,-9.96,24.1
14:38:39,0.43,-24.30,-20.35,24.1
14:38:39,-2.56,-23.88,-11.39,24.1
14:38:39,-0.33,-13.91,-6.33,24.1
14:38:39,1.51,-3.68,-11.98,24.1
14:38:39,1.07,3.42,-12.54,24.1
14:38:39,0.38,10.70,-8.89,24.1
14:38:39,-0.43,15.84,-4.03,24.1
14:38:39,-0.60,20.19,-4.23,24.1
14:38:39,0.25,10.79,-10.84,24.1
14:38:39,-0.57,-29.09,-21.36,24.1
14:38:39,-2.40,-22.20,-10.01,24.1
14:38:40,-0.10,-11.94,-6.45,24.1
14:38:40,1.65,-2.41,-12.41,24.1
14:38:40,1.27,4.62,-12.11,24.1
14:38:40,0.34,12.21,-8.58,24.1
14:38:40,-0.34,16.47,-3.36,24.1
14:38:40,-0.68,19.47,-4.09,24.1
14:38:40,-0.36,7.26,-12.61,24.1
14:38:40,-1.62,-32.28,-21.73,24.1
14:38:40,-1.79,-20.29,-8.22,24.1
14:38:40,0.80,-11.48,-6.58,24.1
14:38:40,1.50,-1.69,-12.50,24.1
14:38:40,1.11,6.27,-12.01,24.1
14:38:40,0.12,13.42,-7.63,24.1
14:38:40,-0.60,17.32,-3.36,24.1
14:38:40,-0.92,19.01,-5.28,24.1
14:38:40,-0.29,-0.21,-15.80,24.1
14:38:40,-1.96,-31.88,-19.46,24.1
14:38:40,-1.17,-17.89,-6.26,24.1
14:38:40,1.23,-10.89,-8.06,24.1
14:38:40,1.69,-0.33,-12.86,24.1
14:38:40,0.59,7.57,-11.21,24.1
14:38:40,-0.49,14.08,-6.71,24.1
14:38:40,-0.89,18.10,-2.83,24.1
14:38:40,-0.99,17.24,-7.68,24.1
14:38:40,-0.27,-13.51,-20.24,24.1
14:38:40,-1.62,-26.93,-13.91,24.1
14:38:40,0.03,-15.48,-5.34,24.1
14:38:40,1.64,-8.08,-10.25,24.1
14:38:40,1.60,1.77,-13.50,24.1
14:38:40,0.22,8.88,-10.03,24.1
14:38:40,-0.52,14.64,-5.03,24.1
14:38:40,-0.70,19.03,-2.92,24.1
14:38:40,-0.33,15.54,-8.77,24.1
14:38:40,0.73,-18.91,-20.13,24.1
14:38:40,-1.85,-26.00,-13.19,24.1
14:38:40,-0.67,-14.92,-5.54,24.1
14:38:40,0.98,-6.07,-11.36,24.1
14:38:40,0.76,2.49,-12.96,24.1
14:38:40,-0.17,9.02,-9.23,24.1
14:38:40,-0.66,15.27,-4.19,24.1
14:38:40,-0.75,20.57,-3.62,24.1
14:38:40,0.52,14.30,-9.62,24.1
14:38:40,0.91,-26.58,-20.39,24.1
14:38:40,-2.62,-23.84,-11.90,24.1
14:38:40,-1.05,-13.44,-6.37,24.1
14:38:40,0.82,-3.74,-12.27,24.1
14:38:40,0.44,2.95,-12.09,24.1
14:38:40,-0.40,10.50,-8.27,24.1
14:38:40,-0.76,17.09,-3.88,24.1
14:38:40,-0.05,21.28,-5.09,24.1
14:38:40,2.68,8.43,-10.29,24.1
14:38:40,1.49,-29.76,-19.91,24.1
14:38:40,-3.41,-21.39,-11.07,24.1
14:38:40,-1.48,-12.60,-7.57,24.1
14:38:40,0.38,-2.12,-12.82,24.1
14:38:40,0.07,4.57,-11.57,24.1
14:38:40,-0.99,11.72,-7.55,24.1
14:38:40,-0.78,18.07,-3.88,24.1
14:38:40,0.90,21.70,-5.01,24.1
14:38:40,4.62,5.08,-10.89,24.1
14:38:40,1.75,-32.90,-20.42,24.1
14:38:40,-3.94,-20.43,-10.57,24.1
14:38:40,-1.58,-12.40,-8.23,24.1
14:38:40,-0.19,-2.42,-12.36,24.1
14:38:40,-0.69,5.79,-11.42,24.1
14:38:40,-1.41,12.76,-7.09,24.1
14:38:40,-0.78,17.94,-2.74,24.1
14:38:40,0.99,19.74,-4.04,24.1
14:38:40,6.36,4.47,-11.94,24.1
14:38:40,2.79,-34.91,-21.96,24.1
14:38:40,-4.00,-19.39,-10.29,24.1
14:38:40,-2.05,-10.86,-8.20,24.1
14:38:40,-0.45,-0.89,-12.53,24.1
14:38:40,-1.07,6.24,-11.28,24.1
14:38:40,-1.34,12.76,-6.77,24.1
14:38:40,-0.60,17.40,-1.75,24.1
14:38:40,1.11,18.98,-3.09,24.1
14:38:40,6.63,4.39,-14.04,24.1
14:38:40,2.51,-36.13,-23.10,24.1
14:38:40,-3.61,-17.88,-9.40,24.1
14:38:40,-2.08,-9.86,-7.58,24.1
14:38:40,-0.65,-0.14,-12.01,24.1
14:38:40,-1.00,6.96,-10.70,24.1
14:38:40,-1.32,13.17,-5.97,24.1
14:38:40,-0.38,17.91,-1.77,24.1
14:38:40,1.67,18.91,-5.15,24.1
14:38:40,6.47,-4.70,-16.52,24.1
14:38:40,0.03,-33.65,-21.46,24.1
14:38:40,-3.20,-16.88,-7.53,24.1
14:38:40,-1.35,-8.29,-9.20,24.1
14:38:40,-0.64,0.85,-12.50,24.1
14:38:40,-1.33,7.39,-10.02,24.1
14:38:40,-1.28,14.30,-5.10,24.1
14:38:40,-0.25,19.39,-2.36,24.1
14:38:40,2.22,16.45,-6.21,24.1
14:38:40,8.50,-9.67,-15.15,24.1
14:38:40,-0.46,-30.71,-21.46,24.1
14:38:40,-3.98,-16.43,-8.11,24.1
14:38:40,-2.16,-7.47,-9.75,24.1
14:38:40,-1.44,1.08,-12.27,24.1
14:38:40,-1.58,7.94,-9.78,24.1
14:38:40,-1.45,14.14,-4.40,24.1
14:38:40,0.09,18.39,-1.77,24.1
14:38:40,3.00,12.85,-6.81,24.1
14:38:40,10.74,-2.66,-12.58,24.1
14:38:40,1.68,-34.11,-24.00,24.1
14:38:40,-4.92,-16.92,-9.16,24.1
14:38:40,-3.71,-7.02,-9.73,24.1
14:38:40,-2.57,1.10,-11.93,24.1
14:38:40,-2.18,9.01,-9.29,24.1
14:38:40,-1.42,15.84,-4.08,24.1
14:38:40,1.09,20.93,-2.37,24.1
14:38:40,4.17,18.04,-4.37,24.1
14:38:40,11.21,-15.41,-12.45,24.1
14:38:40,2.60,-34.97,-25.82,24.1
14:38:40,-5.84,-16.40,-10.69,24.1
14:38:40,-5.50,-7.62,-9.37,24.1
14:38:40,-3.81,2.52,-11.43,24.1
14:38:40,-2.88,10.93,-8.58,24.1
14:38:40,-1.23,18.08,-3.83,24.1
14:38:40,1.81,22.63,-2.41,24.1
14:38:40,4.99,15.95,-3.61,24.1
14:38:40,10.73,-23.39,-15.36,24.1
14:38:40,0.46,-32.37,-25.77,24.1
14:38:40,-6.09,-16.29,-8.95,24.1
14:38:40,-5.40,-6.25,-10.46,24.1
14:38:40,-3.54,5.34,-10.87,24.1
14:38:40,-2.52,12.68,-6.92,24.1
14:38:40,0.20,21.24,-3.33,24.1
14:38:40,2.87,21.85,-3.40,24.1
14:38:40,6.42,8.37,-4.50,24.1
14:38:40,9.23,-34.12,-22.61,24.1
14:38:40,-4.71,-24.13,-19.32,24.1
14:38:40,-5.61,-13.56,-7.48,24.1
14:38:40,-3.48,-2.15,-10.94,24.1
14:38:40,-3.00,6.54,-10.53,24.1
14:38:40,-1.82,14.72,-6.17,24.1
14:38:40,0.90,23.19,-3.74,24.1
14:38:40,2.54,20.23,-2.54,24.1
14:38:40,7.36,5.33,-5.72,24.1
14:38:40,7.95,-37.63,-25.10,24.1
14:38:40,-5.76,-23.68,-16.89,24.1
14:38:40,-5.33,-11.75,-7.55,24.1
14:38:40,-3.23,-0.14,-10.94,24.1
14:38:40,-2.72,8.09,-10.14,24.1
14:38:40,-1.53,16.24,-5.97,24.1
14:38:40,0.90,23.48,-3.46,24.1
14:38:40,2.32,20.67,-1.91,24.1
14:38:40,6.52,2.19,-6.59,24.1
14:38:40,8.26,-40.42,-25.43,24.1
14:38:40,-5.57,-22.98,-16.62,24.1
14:38:40,-5.30,-11.81,-7.43,24.1
14:38:40,-3.09,-0.01,-10.90,24.1
14:38:40,-2.38,9.38,-9.97,24.1
14:38:40,-1.19,17.53,-5.43,24.1
14:38:40,1.24,24.13,-2.35,24.1
14:38:40,2.92,20.64,-1.31,24.1
14:38:40,7.59,-1.54,-7.40,24.1
14:38:40,8.07,-45.45,-29.20,24.1
14:38:40,-6.37,-21.25,-14.34,24.1
14:38:40,-5.25,-9.60,-6.91,24.1
14:38:40,-2.75,2.55,-11.19,24.1
14:38:40,-1.99,11.49,-9.39,24.1
14:38:40,-0.55,19.36,-4.76,24.1
14:38:40,1.35,23.59,-2.46,24.1
14:38:40,2.81,17.80,-2.20,24.1
14:38:40,8.31,-17.39,-13.55,24.1
14:38:40,-0.47,-42.34,-28.50,24.1
14:38:40,-6.58,-18.45,-7.70,24.1
14:38:40,-3.55,-5.34,-9.14,24.1
14:38:40,-1.52,4.16,-12.03,24.1
14:38:40,-1.17,12.46,-8.60,24.1
14:38:40,0.34,20.93,-4.69,24.1
14:38:40,2.13,23.28,-2.27,24.1
14:38:40,3.70,15.75,-2.48,24.1
14:38:40,8.30,-23.29,-16.18,24.1
14:38:40,-2.84,-38.79,-27.12,24.1
14:38:40,-5.86,-17.77,-6.50,24.1
14:38:40,-2.64,-3.40,-9.69,24.1
14:38:40,-1.16,6.47,-11.67,24.1
14:38:40,-0.11,13.90,-7.52,24.1
14:38:40,0.90,22.44,-4.28,24.1
14:38:40,1.75,22.35,-1.81,24.1
14:38:40,2.66,13.26,-4.93,24.1
14:38:40,3.53,-38.19,-23.41,24.1
14:38:40,-6.25,-30.47,-18.52,24.1
14:38:40,-3.43,-12.98,-5.60,24.1
14:38:40,-0.33,-0.16,-11.30,24.1
14:38:40,-0.25,6.69,-10.79,24.1
14:38:40,0.00,14.61,-6.97,24.1
14:38:40,0.71,22.86,-4.90,24.1
14:38:40,0.89,19.75,-2.31,24.1
14:38:40,2.64,9.86,-6.05,24.1
14:38:40,2.50,-39.75,-23.99,24.1
14:38:40,-5.29,-28.89,-15.57,24.1
14:38:40,-2.78,-11.82,-7.12,24.1
14:38:40,-0.28,0.22,-11.93,24.1
14:38:40,0.34,6.94,-10.66,24.1
14:38:40,0.44,13.86,-6.71,24.1
14:38:40,0.78,20.94,-3.27,24.1
14:38:40,0.88,20.70,-2.31,24.1
14:38:40,1.79,11.16,-4.87,24.1
14:38:40,2.90,-37.67,-23.92,24.1
14:38:40,-5.65,-31.29,-19.49,24.1
14:38:40,-3.27,-12.60,-6.64,24.1
14:38:40,-0.42,1.19,-12.10,24.1
14:38:40,0.61,6.62,-9.71,24.1
14:38:40,0.58,13.12,-4.85,24.1
14:38:40,1.35,22.24,-2.73,24.1
14:38:40,1.39,22.12,-2.02,24.1
14:38:40,1.78,8.45,-3.71,24.1
14:38:40,4.08,-38.89,-27.63,24.1
14:38:40,-6.53,-28.90,-18.71,24.1
14:38:40,-3.66,-10.06,-6.83,24.1
14:38:40,-0.94,1.90,-11.09,24.1
14:38:40,0.66,6.35,-7.88,24.1
14:38:40,1.23,14.89,-4.02,24.1
14:38:40,1.86,24.71,-3.67,24.1
14:38:40,1.54,20.01,-2.05,24.1
14:38:40,4.09,-4.42,-10.87,24.1
14:38:40,-1.15,-41.81,-30.63,24.1
14:38:40,-6.57,-21.30,-7.92,24.1
14:38:40,-2.52,-3.06,-9.66,24.1
14:38:40,-0.26,2.11,-11.28,24.1
14:38:40,0.58,7.41,-8.00,24.1
14:38:40,0.65,14.53,-3.68,24.1
14:38:40,1.61,24.01,-4.46,24.1
14:38:40,1.63,16.73,-4.63,24.1
14:38:40,3.31,-17.90,-15.60,24.1
14:38:40,-4.29,-33.35,-23.98,24.1
14:38:40,-4.52,-16.23,-6.95,24.1
14:38:40,-0.53,-0.47,-11.29,24.1
14:38:40,0.77,3.66,-10.08,24.1
14:38:40,0.67,11.44,-7.30,24.1
14:38:40,1.36,19.00,-4.15,24.1
14:38:41,2.14,22.83,-4.46,24.1
14:38:41,2.82,6.69,-6.28,24.1
14:38:41,1.32,-33.37,-23.88,24.1
14:38:41,-6.09,-26.95,-13.47,24.1
14:38:41,-2.48,-8.36,-7.67,24.1
14:38:41,0.51,-0.10,-11.36,24.1
14:38:41,0.74,5.94,-9.78,24.1
14:38:41,0.19,12.92,-6.53,24.1
14:38:41,0.54,22.56,-6.05,24.1
14:38:41,0.93,20.22,-3.79,24.1
14:38:41,2.42,1.91,-8.78,24.1
14:38:41,-0.37,-38.10,-24.44,24.1
14:38:41,-4.52,-24.10,-10.09,24.1
14:38:41,-1.28,-6.85,-8.73,24.1
14:38:41,0.65,-0.01,-11.10,24.1
14:38:41,0.35,7.01,-9.66,24.1
14:38:41,0.12,14.70,-6.51,24.1
14:38:41,1.09,24.64,-6.12,24.1
14:38:41,1.41,17.82,-2.23,24.1
14:38:41,3.21,-2.84,-10.87,24.1
14:38:41,-1.67,-41.26,-25.44,24.1
14:38:41,-4.48,-21.55,-8.06,24.1
14:38:41,-0.84,-5.33,-9.19,24.1
14:38:41,0.57,1.46,-11.13,24.1
14:38:41,0.26,8.30,-8.70,24.1
14:38:41,0.40,16.40,-6.90,24.1
14:38:41,0.80,23.23,-5.58,24.1
14:38:41,1.06,14.90,-3.92,24.1
14:38:41,2.54,-11.58,-14.54,24.1
14:38:41,-3.60,-34.90,-21.53,24.1
14:38:41,-2.84,-17.56,-7.68,24.1
14:38:41,0.43,-4.47,-10.24,24.1
14:38:41,0.53,1.47,-10.99,24.1
14:38:41,-0.55,8.92,-8.73,24.1
14:38:41,-0.26,16.94,-6.25,24.1
14:38:41,1.02,24.15,-5.74,24.1
14:38:41,2.25,13.40,-3.73,24.1
14:38:41,4.33,-15.89,-16.20,24.1
14:38:41,-3.87,-33.21,-20.79,24.1
14:38:41,-3.60,-16.51,-7.38,24.1
14:38:41,-0.29,-3.07,-11.01,24.1
14:38:41,0.49,3.54,-11.02,24.1
14:38:41,-0.28,10.38,-8.72,24.1
14:38:41,0.32,18.86,-5.78,24.1
14:38:41,1.07,22.68,-4.26,24.1
14:38:41,2.47,10.46,-5.60,24.1
14:38:41,2.81,-23.90,-20.18,24.1
14:38:41,-4.63,-29.80,-16.30,24.1
14:38:41,-3.27,-13.68,-6.53,24.1
14:38:41,-0.37,-2.49,-11.37,24.1
14:38:41,-0.22,4.91,-11.61,24.1
14:38:41,-0.83,10.20,-8.95,24.1
14:38:41,-0.39,17.82,-5.28,24.1
14:38:41,0.71,20.97,-4.06,24.1
14:38:41,3.14,10.10,-6.48,24.1
14:38:41,4.21,-26.20,-19.60,24.1
14:38:41,-3.52,-28.86,-15.24,24.1
14:38:41,-2.66,-15.16,-6.76,24.1
14:38:41,-0.62,-3.29,-11.19,24.1
14:38:41,-0.19,3.28,-11.69,24.1
14:38:41,-0.50,10.88,-8.48,24.1
14:38:41,0.21,18.73,-4.93,24.1
14:38:41,1.42,22.53,-4.06,24.1
14:38:41,3.40,11.14,-5.80,24.1
14:38:41,4.20,-29.29,-20.41,24.1
14:38:41,-5.31,-28.28,-16.11,24.1
14:38:41,-3.44,-13.90,-6.56,24.1
14:38:41,-0.91,-0.70,-11.87,24.1
14:38:41,-0.03,4.22,-10.68,24.1
14:38:41,-0.34,12.00,-7.53,24.1
14:38:41,0.68,21.29,-5.69,24.1
14:38:41,1.28,22.37,-3.88,24.1
14:38:41,2.75,7.37,-6.14,24.1
14:38:41,2.29,-34.75,-23.26,24.1
14:38:41,-6.19,-26.06,-12.77,24.1
14:38:41,-3.69,-9.46,-7.12,24.1
14:38:41,-0.48,0.10,-11.81,24.1
14:38:41,-0.30,5.25,-10.04,24.1
14:38:41,0.02,13.91,-7.20,24.1
14:38:41,1.85,22.49,-5.87,24.1
14:38:41,3.01,18.14,-3.39,24.1
14:38:41,5.95,-4.35,-10.52,24.1
14:38:41,-0.96,-34.67,-22.37,24.1
14:38:41,-5.67,-20.81,-8.78,24.1
14:38:41,-1.45,-6.39,-9.93,24.1
14:38:41,0.17,-0.60,-10.77,24.1
14:38:41,0.30,6.68,-9.52,24.1
14:38:41,0.69,14.18,-6.49,24.1
14:38:41,1.57,22.83,-6.68,24.1
14:38:41,0.50,15.13,-3.93,24.1
