Time,AccelerationX [m/s2],AccelerationY [m/s2],AccelerationZ [m/s2],Celsius [deg]
17:31:56,-0.24,-0.02,-10.02,23.4
17:31:56,-0.12,0.07,-10.04,23.4
17:31:56,-0.16,-0.04,-10.13,23.4
17:31:56,-0.20,-0.10,-9.96,23.4
17:31:56,-0.30,0.07,-10.12,23.4
17:31:56,-0.17,0.08,-10.01,23.4
17:31:56,-0.13,-0.04,-9.97,23.4
17:31:56,-0.13,0.03,-10.10,23.4
17:31:56,-0.10,0.02,-10.04,23.4
17:31:56,-0.16,-0.07,-10.11,23.4
17:31:56,-0.18,0.01,-10.01,23.4
17:31:56,-0.12,-0.02,-9.98,23.4
17:31:56,-0.25,-0.05,-10.08,23.4
17:31:56,-0.22,0.02,-9.97,23.4
17:31:56,-0.21,0.06,-10.07,23.4
17:31:56,-0.15,0.02,-10.12,23.4
17:31:56,-0.22,0.05,-10.07,23.4
17:31:56,-0.19,-0.04,-10.03,23.4
17:31:56,-0.17,0.05,-10.06,23.4
17:31:56,-0.11,0.14,-10.14,23.4
17:31:56,-0.13,-0.07,-10.06,23.4
17:31:56,-0.22,0.01,-10.10,23.4
17:31:56,-0.21,0.02,-10.07,23.4
17:31:56,-0.25,0.02,-10.13,23.4
17:31:56,-0.18,-0.08,-10.13,23.4
17:31:56,-0.22,0.02,-10.11,23.4
17:31:56,-0.19,0.08,-9.93,23.4
17:31:56,-0.21,-0.01,-10.05,23.4
17:31:56,-0.09,0.03,-10.12,23.4
17:31:56,-0.16,-0.04,-10.02,23.4
17:31:56,-0.19,0.10,-10.05,23.4
17:31:56,-0.17,-0.10,-10.06,23.4
17:31:56,-0.09,-0.02,-10.13,23.4
17:31:56,-0.15,-0.03,-9.99,23.4
17:31:56,-0.20,0.03,-10.13,23.4
17:31:56,-0.23,0.03,-10.02,23.4
17:31:56,-0.20,-0.04,-9.92,23.4
17:31:56,-0.26,0.09,-10.10,23.4
17:31:56,-0.16,-0.03,-10.17,23.4
17:31:56,-0.07,-0.03,-10.01,23.4
17:31:56,-0.15,0.03,-10.02,23.4
17:31:56,-0.22,-0.07,-10.10,23.4
17:31:56,-0.14,-0.03,-10.04,23.4
17:31:56,-0.30,-0.10,-10.05,23.4
17:31:56,-0.15,0.01,-10.07,23.4
17:31:56,-0.18,-0.07,-10.00,23.4
17:31:56,-0.24,0.06,-10.12,23.4
17:31:56,-0.20,0.03,-10.08,23.4
17:31:56,-0.19,0.04,-10.09,23.4
17:31:56,-0.18,-0.03,-10.03,23.4
17:31:56,-0.16,0.02,-10.08,23.4
17:31:56,-0.22,-0.02,-10.10,23.4
17:31:56,-0.21,0.06,-10.02,23.4
17:31:56,-0.20,-0.01,-10.07,23.4
17:31:56,-0.13,0.00,-10.01,23.4
17:31:56,-0.18,-0.01,-10.12,23.4
17:31:56,-0.21,-0.05,-10.08,23.4
17:31:56,-0.17,0.00,-10.05,23.4
17:31:56,-0.17,-0.08,-10.02,23.4
17:31:56,-0.16,0.00,-10.13,23.4
17:31:56,-0.16,0.08,-10.11,23.4
17:31:56,-0.18,-0.03,-10.01,23.4
17:31:56,-0.17,0.09,-10.03,23.4
17:31:56,-0.18,0.14,-10.06,23.4
17:31:56,-0.25,0.14,-10.06,23.4
17:31:56,-0.07,-0.03,-9.97,23.4
17:31:56,-0.09,0.01,-10.03,23.4
17:31:56,-0.12,-0.08,-10.05,23.4
17:31:56,-0.19,0.02,-9.93,23.4
17:31:56,-0.17,0.06,-10.10,23.4
17:31:56,-0.22,0.04,-10.06,23.4
17:31:56,-0.15,-0.04,-10.03,23.4
17:31:56,-0.31,0.07,-10.00,23.4
17:31:56,-0.22,-0.05,-10.06,23.4
17:31:56,-0.28,-0.02,-10.07,23.4
17:31:56,-0.15,-0.04,-10.06,23.4
17:31:56,-0.10,-0.04,-10.06,23.4
17:31:56,-0.31,-0.07,-10.03,23.4
17:31:56,-0.18,0.01,-10.03,23.4
17:31:56,-0.22,0.11,-9.97,23.4
17:31:56,-0.37,0.00,-10.09,23.4
17:31:56,-0.16,-0.07,-10.06,23.4
17:31:57,-0.12,-0.01,-10.10,23.4
17:31:57,-0.23,-0.03,-10.09,23.4
17:31:57,-0.24,-0.03,-10.07,23.4
17:31:57,-0.21,-0.01,-10.03,23.4
17:31:57,-0.20,0.12,-10.06,23.4
17:31:57,-0.14,0.03,-10.01,23.4
17:31:57,-0.21,-0.02,-10.10,23.4
17:31:57,-0.27,0.06,-9.98,23.4
17:31:57,-0.14,-0.10,-10.09,23.4
17:31:57,-0.18,0.03,-10.03,23.4
17:31:57,-0.30,0.03,-10.03,23.4
17:31:57,-0.18,0.07,-10.01,23.4
17:31:57,-0.18,0.10,-10.04,23.4
17:31:57,-0.21,0.01,-10.00,23.4
17:31:57,-0.11,0.10,-10.13,23.4
17:31:57,-0.14,0.07,-10.13,23.4
17:31:57,-0.15,0.08,-10.08,23.4
17:31:57,-0.12,0.05,-10.01,23.4
17:31:57,-0.24,-0.09,-9.97,23.4
17:31:57,-0.24,0.07,-10.09,23.4
17:31:57,-0.15,0.16,-10.10,23.4
17:31:57,-0.13,0.04,-10.06,23.4
17:31:57,-0.21,0.02,-9.98,23.4
17:31:57,-0.22,-0.01,-10.09,23.4
17:31:57,-0.14,-0.04,-10.11,23.4
17:31:57,-0.30,0.00,-9.94,23.4
17:31:57,-0.16,-0.04,-10.03,23.4
17:31:57,-0.18,0.07,-10.09,23.4
17:31:57,-0.16,0.00,-10.18,23.4
17:31:57,-0.21,-0.03,-10.05,23.4
17:31:57,-0.27,0.00,-10.03,23.4
17:31:57,-0.20,-0.03,-10.03,23.4
17:31:57,-0.21,0.08,-9.94,23.4
17:31:57,-0.20,0.01,-10.03,23.4
17:31:57,-0.15,-0.06,-10.02,23.4
17:31:57,-0.25,0.09,-10.06,23.4
17:31:57,-0.17,-0.08,-10.10,23.4
17:31:57,-0.28,0.13,-10.01,23.4
17:31:57,-0.16,-0.02,-10.09,23.4
17:31:57,-0.10,-0.02,-10.09,23.4
17:31:57,-0.31,-0.06,-10.01,23.4
17:31:57,-0.17,0.08,-10.10,23.4
17:31:57,-0.38,0.07,-10.05,23.4
17:31:57,-0.17,0.02,-10.15,23.4
17:31:57,-0.21,0.01,-10.15,23.4
17:31:57,-0.24,0.09,-10.08,23.4
17:31:57,-0.16,0.07,-10.04,23.4
17:31:57,-0.17,0.07,-10.09,23.4
17:31:57,-0.13,0.06,-10.10,23.4
17:31:57,-0.13,0.04,-10.07,23.4
17:31:57,-0.22,0.15,-10.13,23.4
17:31:57,-0.19,0.08,-10.22,23.4
17:31:57,-0.12,0.04,-10.14,23.4
17:31:57,-0.12,0.01,-10.04,23.4
17:31:57,-0.21,0.09,-10.19,23.4
17:31:57,-0.20,0.00,-10.06,23.4
17:31:57,-0.10,0.02,-10.06,23.4
17:31:57,-0.12,0.04,-10.09,23.4
17:31:57,-0.19,0.00,-10.04,23.4
17:31:57,-0.21,-0.01,-10.02,23.4
17:31:57,-0.15,-0.08,-9.98,23.4
17:31:57,-0.20,0.07,-10.04,23.4
17:31:57,-0.26,-0.02,-10.02,23.4
17:31:57,-0.22,-0.03,-10.10,23.4
17:31:57,-0.25,-0.10,-10.08,23.4
17:31:57,-0.13,-0.03,-10.07,23.4
17:31:57,-0.15,-0.07,-10.04,23.4
17:31:57,-0.17,-0.06,-10.14,23.4
17:31:57,-0.14,-0.04,-9.96,23.4
17:31:57,-0.23,0.02,-10.12,23.4
17:31:57,-0.16,0.05,-10.07,23.4
17:31:57,-0.15,-0.03,-10.13,23.4
17:31:57,-0.10,-0.03,-10.05,23.4
17:31:57,-0.18,0.03,-10.02,23.4
17:31:57,-0.25,0.00,-10.02,23.4
17:31:57,-0.21,-0.04,-9.99,23.4
17:31:57,-0.21,-0.10,-10.05,23.4
17:31:57,-0.15,-0.05,-10.00,23.4
17:31:57,-0.21,0.00,-10.01,23.4
17:31:57,-0.18,0.05,-10.08,23.4
17:31:57,-0.17,0.05,-10.08,23.4
17:31:57,-0.11,-0.04,-10.01,23.4
17:31:57,-0.18,-0.05,-10.03,23.4
17:31:57,-0.19,0.09,-10.03,23.4
17:31:57,-0.23,-0.04,-10.01,23.4
17:31:57,-0.21,0.04,-10.03,23.4
17:31:57,-0.26,0.04,-10.10,23.4
17:31:57,-0.19,0.05,-10.10,23.4
17:31:57,-0.11,0.07,-10.01,23.4
17:31:57,-0.31,-0.05,-9.99,23.4
17:31:57,-0.13,0.03,-10.07,23.4
17:31:57,-0.16,0.06,-10.01,23.4
17:31:57,-0.23,0.19,-10.04,23.4
17:31:57,-0.21,-0.01,-9.99,23.4
17:31:57,-0.14,-0.04,-10.08,23.4
17:31:57,-0.24,-0.11,-9.95,23.4
17:31:57,-0.17,0.05,-10.02,23.4
17:31:57,-0.07,-0.08,-10.08,23.4
17:31:57,-0.26,-0.05,-10.12,23.4
17:31:57,-0.22,0.09,-10.12,23.4
17:31:58,-0.14,0.06,-10.07,23.4
17:31:58,-0.25,-0.01,-10.13,23.4
17:31:58,-0.14,-0.01,-10.02,23.4
17:31:58,-0.19,-0.02,-9.96,23.4
17:31:58,-0.15,0.07,-9.99,23.4
17:31:58,-0.15,-0.01,-10.12,23.4
17:31:58,-0.22,0.05,-10.00,23.4
17:31:58,-0.15,0.02,-9.94,23.4
17:31:58,-0.24,0.13,-10.10,23.4
17:31:58,-0.24,-0.04,-9.96,23.4
17:31:58,-0.15,-0.02,-10.06,23.4
17:31:58,-0.21,-0.09,-9.97,23.4
17:31:58,-0.22,-0.09,-10.07,23.4
17:31:58,-0.10,-0.04,-10.02,23.4
17:31:58,-0.29,0.07,-10.06,23.4
17:31:58,-0.21,0.07,-10.07,23.4
17:31:58,-0.18,-0.07,-10.11,23.4
17:31:58,-0.12,-0.02,-10.16,23.4
17:31:58,-0.21,0.00,-10.06,23.4
17:31:58,-0.23,-0.06,-10.03,23.4
17:31:58,-0.23,0.00,-10.07,23.4
17:31:58,-0.21,0.08,-10.06,23.4
17:31:58,-0.24,-0.09,-10.03,23.4
17:31:58,0.02,1.47,-10.16,23.4
17:31:58,1.33,0.87,-10.33,23.4
17:31:58,-0.10,-1.38,-10.87,23.4
17:31:58,-0.92,-0.72,-10.46,23.4
17:31:58,-0.30,-0.13,-9.92,23.4
17:31:58,-0.23,-0.66,-9.97,23.4
17:31:58,-0.25,-0.21,-9.93,23.4
17:31:58,-0.34,-0.74,-10.18,23.4
17:31:58,-0.34,-0.46,-10.04,23.4
17:31:58,-0.06,-0.02,-10.07,23.4
17:31:58,-0.51,0.28,-9.93,23.4
17:31:58,-0.04,0.73,-10.20,23.4
17:31:58,0.04,0.16,-9.91,23.4
17:31:58,-0.22,0.05,-10.00,23.4
17:31:58,-0.10,0.14,-10.19,23.4
17:31:58,-0.24,-0.06,-10.04,23.4
17:31:58,-0.21,0.03,-9.99,23.4
17:31:58,-0.31,0.09,-10.00,23.4
17:31:58,-0.23,-0.09,-9.96,23.4
17:31:58,-0.19,0.04,-9.99,23.4
17:31:58,-0.22,0.05,-10.05,23.4
17:31:58,-0.16,-0.01,-10.05,23.4
17:31:58,-0.22,0.05,-10.07,23.4
17:31:58,-0.08,0.09,-10.10,23.4
17:31:58,-0.13,0.05,-10.09,23.4
17:31:58,-0.30,0.08,-10.09,23.4
17:31:58,-0.27,-0.04,-9.98,23.4
17:31:58,-0.40,0.05,-10.07,23.4
17:31:58,-0.27,0.00,-10.00,23.4
17:31:58,0.21,0.01,-10.13,23.4
17:31:58,-0.16,-0.10,-10.06,23.4
17:31:58,-0.32,-0.10,-10.08,23.4
17:31:58,-0.19,-0.09,-10.04,23.4
17:31:58,-0.35,-0.57,-10.08,23.4
17:31:58,-0.26,-0.32,-10.06,23.4
17:31:58,0.30,-0.04,-10.27,23.4
17:31:58,-0.25,0.62,-9.95,23.4
17:31:58,0.00,0.17,-9.95,23.4
17:31:58,-0.27,-0.25,-10.02,23.4
17:31:58,-0.19,0.37,-10.02,23.4
17:31:58,-0.27,0.10,-10.11,23.4
17:31:58,-0.27,0.09,-9.94,23.4
17:31:58,-0.05,0.04,-10.06,23.4
17:31:58,-0.24,-0.11,-10.08,23.4
17:31:58,-0.13,0.18,-10.11,23.4
17:31:58,-0.05,0.18,-9.96,23.4
17:31:58,0.09,0.25,-10.12,23.4
17:31:58,-0.16,-0.05,-10.10,23.4
17:31:58,-0.20,0.06,-10.12,23.4
17:31:58,-0.16,-0.06,-10.04,23.4
17:31:58,0.02,-0.08,-9.96,23.4
17:31:58,0.11,0.44,-10.02,23.4
17:31:58,-0.21,0.05,-10.08,23.4
17:31:58,-0.14,0.13,-9.99,23.4
17:31:58,-0.09,0.16,-10.08,23.4
17:31:58,-0.09,0.11,-10.03,23.4
17:31:58,0.00,0.14,-10.10,23.4
17:31:58,-0.10,0.12,-10.02,23.4
17:31:58,-0.10,0.08,-9.92,23.4
17:31:58,0.09,-0.07,-10.00,23.4
17:31:58,-0.21,0.12,-9.94,23.4
17:31:58,-0.03,0.07,-9.96,23.4
17:31:58,0.07,0.20,-10.06,23.4
17:31:58,-0.24,0.15,-9.96,23.4
17:31:58,-0.03,0.07,-10.03,23.4
17:31:58,-0.07,0.09,-10.01,23.4
17:31:58,-0.10,-0.01,-10.02,23.4
17:31:58,-0.12,-0.09,-10.02,23.4
17:31:58,-0.05,0.10,-10.03,23.4
17:31:58,-0.23,0.05,-10.10,23.4
17:31:58,-0.12,-0.12,-10.03,23.4
17:31:58,-0.19,0.38,-9.96,23.4
17:31:58,-0.18,-0.15,-9.99,23.4
17:31:58,-0.25,-0.01,-10.04,23.4
17:31:58,-0.12,0.25,-10.13,23.4
17:31:58,-0.15,0.46,-9.94,23.4
17:31:58,-0.30,-0.33,-10.01,23.4
17:31:58,-0.16,0.02,-10.03,23.4
17:31:58,-0.10,0.09,-10.03,23.4
17:31:59,-0.21,-0.01,-10.06,23.4
17:31:59,-0.23,-0.07,-10.12,23.4
17:31:59,-0.12,-0.09,-9.96,23.4
17:31:59,-0.14,0.04,-10.06,23.4
17:31:59,-0.12,-0.06,-10.32,23.4
17:31:59,-0.28,-0.26,-10.10,23.4
17:31:59,-0.31,-0.28,-10.13,23.4
17:31:59,0.14,-0.40,-9.94,23.4
17:31:59,0.12,0.09,-10.07,23.4
17:31:59,-0.16,0.12,-10.72,23.4
17:31:59,-0.49,-0.35,-9.92,23.4
17:31:59,-0.97,-0.06,-10.03,23.4
17:31:59,-0.55,0.00,-10.32,23.4
17:31:59,-0.17,0.11,-10.24,23.4
17:31:59,-0.09,0.07,-10.52,23.4
17:31:59,0.04,0.02,-10.63,23.4
17:31:59,0.21,-0.24,-10.23,23.4
17:31:59,-0.36,-0.41,-10.10,23.4
17:31:59,-0.92,-0.27,-9.98,23.4
17:31:59,-1.13,-0.19,-10.35,23.4
17:31:59,-0.97,-0.12,-10.70,23.4
17:31:59,-0.61,0.30,-10.62,23.4
17:31:59,-0.53,0.34,-10.45,23.4
17:31:59,-0.31,0.10,-9.94,23.4
17:31:59,-0.27,0.17,-9.63,23.4
17:31:59,0.09,0.12,-9.60,23.4
17:31:59,0.27,0.16,-9.66,23.4
17:31:59,-0.53,-0.10,-9.96,23.4
17:31:59,-0.63,0.00,-9.73,23.4
17:31:59,-0.75,-0.04,-9.54,23.4
17:31:59,-0.49,-0.03,-9.56,23.4
17:31:59,-0.40,-0.06,-9.87,23.4
17:31:59,0.06,-0.04,-9.89,23.4
17:31:59,-0.06,-0.58,-10.18,23.4
17:31:59,0.42,-0.12,-10.46,23.4
17:31:59,0.65,-0.02,-10.70,23.4
17:31:59,0.41,-0.35,-10.39,23.4
17:31:59,0.04,-0.92,-10.19,23.4
17:31:59,-0.35,-0.26,-10.08,23.4
17:31:59,-0.78,-0.44,-9.97,23.4
17:31:59,-0.78,-0.21,-9.97,23.4
17:31:59,-0.81,-0.16,-10.02,23.4
17:31:59,-1.25,-0.39,-10.50,23.4
17:31:59,-1.53,-0.53,-10.60,23.4
17:31:59,-1.63,-0.64,-10.34,23.4
17:31:59,-1.67,-0.49,-9.93,23.4
17:31:59,-0.46,-0.47,-9.74,23.4
17:31:59,-0.07,0.30,-8.69,23.4
17:31:59,-0.10,-0.07,-9.16,23.4
17:31:59,-0.37,-0.29,-9.83,23.4
17:31:59,-0.41,-0.20,-9.99,23.4
17:31:59,-0.27,-0.09,-10.22,23.4
17:31:59,-0.40,-0.59,-9.93,23.4
17:31:59,-0.40,-0.52,-9.74,23.4
17:31:59,0.08,-0.61,-9.59,23.4
17:31:59,0.79,-0.87,-9.63,23.4
17:31:59,0.23,-0.11,-9.65,23.4
17:31:59,-0.64,-0.27,-9.83,23.4
17:31:59,-0.86,-0.93,-9.68,23.4
17:31:59,-0.59,-0.65,-9.99,23.4
17:31:59,-0.76,-0.35,-10.26,23.4
17:31:59,-1.05,-0.27,-10.57,23.4
17:31:59,-1.01,-0.34,-10.58,23.4
17:31:59,-0.67,-0.33,-9.51,23.4
17:31:59,-0.52,-0.31,-9.00,23.4
17:31:59,-0.44,-0.01,-9.32,23.4
17:31:59,-0.33,0.09,-9.20,23.4
17:31:59,-0.44,-0.07,-9.19,23.4
17:31:59,-0.09,0.38,-9.29,23.4
17:31:59,0.13,0.41,-9.49,23.4
17:31:59,-0.50,0.38,-9.81,23.4
17:31:59,0.06,0.03,-9.76,23.4
17:31:59,-0.30,0.15,-9.87,23.4
17:31:59,-0.23,-0.08,-9.68,23.4
17:31:59,-0.02,-0.18,-9.76,23.4
17:31:59,0.22,0.00,-10.04,23.4
17:31:59,0.05,0.19,-10.99,23.4
17:31:59,-0.05,0.01,-11.67,23.4
17:31:59,0.06,0.12,-11.82,23.4
17:31:59,-0.08,0.13,-11.67,23.4
17:31:59,-0.25,-0.08,-11.01,23.4
17:31:59,-0.22,0.12,-10.36,23.4
17:31:59,-0.42,-0.24,-9.75,23.4
17:31:59,-0.39,-0.19,-9.52,23.4
17:31:59,-0.48,-0.19,-9.56,23.4
17:31:59,-0.53,-0.29,-9.50,23.4
17:31:59,-0.74,-0.24,-9.42,23.4
17:31:59,-0.53,-0.29,-9.74,23.4
17:31:59,-0.40,-0.05,-9.84,23.4
17:31:59,-0.17,0.31,-10.01,23.4
17:31:59,0.08,0.63,-9.94,23.4
17:31:59,0.23,0.66,-10.05,23.4
17:31:59,0.32,0.75,-9.91,23.4
17:31:59,0.39,0.81,-10.23,23.4
17:31:59,0.45,0.84,-10.43,23.4
17:31:59,0.06,0.77,-10.19,23.4
17:31:59,-0.25,0.60,-10.03,23.4
17:31:59,-0.62,0.37,-10.20,23.4
17:31:59,-0.57,0.36,-10.42,23.4
17:31:59,-0.53,0.43,-10.51,23.4
17:32:00,-0.49,0.55,-10.18,23.4
17:32:00,-0.36,0.48,-10.42,23.4
17:32:00,-0.25,0.51,-10.31,23.4
17:32:00,-0.23,0.19,-10.10,23.4
17:32:00,-0.38,-0.33,-9.64,23.4
17:32:00,-0.29,-0.08,-9.74,23.4
17:32:00,-0.53,-0.22,-10.20,23.4
17:32:00,-0.62,0.04,-10.41,23.4
17:32:00,-0.82,-0.04,-10.26,23.4
17:32:00,-0.67,-0.16,-10.10,23.4
17:32:00,-0.65,0.19,-9.98,23.4
17:32:00,-0.51,0.13,-9.92,23.4
17:32:00,-0.55,0.11,-9.74,23.4
17:32:00,-0.48,-0.02,-9.49,23.4
17:32:00,-0.48,-0.32,-9.58,23.4
17:32:00,-0.28,0.70,-11.85,23.4
17:32:00,-0.47,-0.63,-9.72,23.4
17:32:00,-0.38,0.08,-9.78,23.4
17:32:00,-0.38,0.09,-10.75,23.4
17:32:00,-0.58,-0.12,-10.04,23.4
17:32:00,-0.70,-0.04,-10.20,23.4
17:32:00,-0.51,0.06,-9.90,23.4
17:32:00,-0.54,0.16,-9.98,23.4
17:32:00,-0.61,0.00,-10.08,23.4
17:32:00,-0.72,-0.03,-10.04,23.4
17:32:00,-0.54,0.06,-10.09,23.4
17:32:00,-0.44,-0.16,-9.94,23.4
17:32:00,-0.63,-0.15,-9.90,23.4
17:32:00,-0.44,-0.20,-10.03,23.4
17:32:00,-0.45,-0.03,-10.13,23.4
17:32:00,-0.47,0.07,-9.99,23.4
17:32:00,-0.44,0.10,-10.16,23.4
17:32:00,-0.28,0.02,-10.02,23.4
17:32:00,-0.41,0.09,-10.05,23.4
17:32:00,-0.42,0.04,-10.05,23.4
17:32:00,-0.23,0.00,-10.07,23.4
17:32:00,-0.37,-0.04,-9.96,23.4
17:32:00,-0.11,0.00,-10.01,23.4
17:32:00,-0.18,0.14,-9.97,23.4
17:32:00,-0.24,-0.03,-10.08,23.4
17:32:00,-0.20,-0.02,-10.14,23.4
17:32:00,0.04,0.11,-10.08,23.4
17:32:00,-0.39,0.01,-10.16,23.4
17:32:00,-0.23,0.07,-9.98,23.4
17:32:00,-0.14,0.12,-10.02,23.4
17:32:00,-0.16,-0.05,-10.05,23.4
17:32:00,0.03,0.07,-10.12,23.4
17:32:00,-0.23,0.00,-9.88,23.4
17:32:00,-0.02,0.08,-10.11,23.4
17:32:00,0.06,-0.08,-10.10,23.4
17:32:00,-0.15,0.08,-10.08,23.4
17:32:00,-0.15,0.00,-10.13,23.4
17:32:00,-0.09,0.14,-10.09,23.4
17:32:00,-0.08,0.10,-10.09,23.4
17:32:00,-0.07,0.08,-10.06,23.4
17:32:00,-0.05,-0.01,-10.18,23.4
17:32:00,0.00,0.02,-10.02,23.4
17:32:00,-0.09,0.09,-10.00,23.4
17:32:00,0.05,0.07,-10.05,23.4
17:32:00,0.07,0.16,-10.05,23.4
17:32:00,-0.11,0.16,-10.04,23.4
17:32:00,-0.02,0.21,-10.10,23.4
17:32:00,-0.13,0.07,-10.14,23.4
17:32:00,0.01,0.17,-10.04,23.4
17:32:00,0.05,0.14,-10.04,23.4
17:32:00,0.03,0.08,-10.09,23.4
17:32:00,0.03,0.11,-10.02,23.4
17:32:00,-0.01,0.03,-10.02,23.4
17:32:00,0.04,0.14,-10.15,23.4
17:32:00,-0.03,0.12,-9.99,23.4
17:32:00,0.05,0.05,-9.96,23.4
17:32:00,0.00,0.07,-9.97,23.4
17:32:00,-0.14,0.13,-10.16,23.4
17:32:00,0.01,0.10,-10.01,23.4
17:32:00,0.08,0.17,-10.15,23.4
17:32:00,-0.03,0.11,-10.12,23.4
17:32:00,-0.14,0.04,-10.10,23.4
17:32:00,-0.03,0.02,-10.07,23.4
17:32:00,-0.06,0.02,-10.12,23.4
17:32:00,-0.08,0.00,-10.07,23.4
17:32:00,-0.03,0.07,-10.11,23.4
17:32:00,0.04,0.10,-10.03,23.4
17:32:00,-0.04,0.11,-10.10,23.4
17:32:00,-0.02,0.08,-10.01,23.4
17:32:00,-0.10,0.12,-10.11,23.4
17:32:00,-0.05,0.08,-10.03,23.4
17:32:00,-0.08,0.10,-10.03,23.4
17:32:00,-0.06,-0.04,-10.16,23.4
17:32:00,-0.06,0.07,-10.09,23.4
17:32:00,-0.03,0.00,-10.10,23.4
17:32:00,0.02,0.13,-9.95,23.4
17:32:00,-0.07,0.07,-10.07,23.4
17:32:00,0.00,0.09,-10.11,23.4
17:32:00,-0.03,0.08,-9.95,23.4
17:32:00,0.03,0.09,-10.05,23.4
17:32:00,0.06,0.20,-10.08,23.4
17:32:00,0.00,0.12,-10.08,23.4
17:32:00,0.02,0.08,-10.05,23.4
17:32:00,-0.06,0.12,-10.05,23.4
17:32:01,-0.06,0.00,-10.06,23.4
17:32:01,-0.05,0.15,-9.96,23.4
17:32:01,0.02,0.13,-10.08,23.4
17:32:01,-0.02,0.14,-10.08,23.4
17:32:01,0.00,0.03,-10.04,23.4
17:32:01,-0.04,0.05,-10.06,23.4
17:32:01,-0.01,0.05,-10.01,23.4
17:32:01,0.05,0.10,-10.09,23.4
17:32:01,0.00,0.19,-10.12,23.4
17:32:01,-0.01,0.08,-10.06,23.4
17:32:01,-0.09,0.14,-10.10,23.4
17:32:01,-0.10,0.03,-10.04,23.4
17:32:01,-0.04,0.13,-10.16,23.4
17:32:01,-0.01,0.09,-10.06,23.4
17:32:01,-0.05,0.12,-10.03,23.4
17:32:01,-0.10,0.15,-10.06,23.4
17:32:01,-0.15,0.09,-10.06,23.4
17:32:01,-0.08,-0.03,-10.06,23.4
17:32:01,0.05,0.07,-10.05,23.4
17:32:01,-0.07,-0.05,-10.01,23.4
17:32:01,-0.06,0.11,-10.00,23.4
17:32:01,0.04,-0.03,-10.05,23.4
17:32:01,0.05,0.04,-10.04,23.4
17:32:01,-0.05,0.08,-10.12,23.4
17:32:01,0.02,0.18,-10.12,23.4
17:32:01,0.03,0.06,-10.01,23.4
17:32:01,-0.04,0.09,-10.10,23.4
17:32:01,0.01,0.10,-10.08,23.4
17:32:01,0.00,0.07,-10.03,23.4
17:32:01,0.14,0.16,-10.10,23.4
17:32:01,-0.41,-0.22,-10.11,23.4
17:32:01,0.05,0.17,-10.06,23.4
17:32:01,0.14,0.22,-10.14,23.4
17:32:01,-0.05,0.00,-10.08,23.4
17:32:01,0.05,0.08,-10.04,23.4
17:32:01,0.21,0.35,-10.21,23.4
17:32:01,0.13,0.31,-10.17,23.4
17:32:01,0.36,0.67,-10.25,23.4
17:32:01,0.31,1.09,-10.49,23.4
17:32:01,0.38,0.85,-9.86,23.4
17:32:01,0.38,0.42,-9.05,23.4
17:32:01,-0.42,-0.08,-10.90,23.4
17:32:01,-0.37,-0.29,-10.70,23.4
17:32:01,-0.05,-0.30,-9.34,23.4
17:32:01,0.21,-0.24,-9.23,23.4
17:32:01,0.10,0.07,-9.70,23.4
17:32:01,-0.39,-0.57,-8.33,23.4
17:32:01,-1.18,-1.36,-7.26,23.4
17:32:01,-2.93,-1.55,-5.23,23.4
17:32:01,-0.78,-1.58,-12.27,23.4
17:32:01,1.99,-2.29,-12.79,23.4
17:32:01,-0.49,2.08,-13.82,23.4
17:32:01,1.03,-1.78,-12.30,23.4
17:32:01,1.41,1.60,-11.63,23.4
17:32:01,1.27,-0.40,-8.73,23.4
17:32:01,0.90,1.65,-10.28,23.4
17:32:01,-0.06,2.12,-9.38,23.4
17:32:01,-0.44,3.76,-10.61,23.4
17:32:01,-0.63,3.51,-9.74,23.4
17:32:01,-2.58,3.68,-10.15,23.4
17:32:01,-2.42,2.42,-9.92,23.4
17:32:01,-4.27,-3.69,-11.46,23.4
17:32:01,-3.15,-1.12,-9.71,23.4
17:32:01,-3.70,-3.34,-10.86,23.4
17:32:01,-2.00,-1.84,-12.32,23.4
17:32:01,-1.25,-1.40,-12.20,23.4
17:32:01,-1.00,-1.22,-11.73,23.4
17:32:01,-0.91,-0.23,-8.84,23.4
17:32:01,-0.43,0.64,-6.81,23.4
17:32:01,-0.06,0.28,-7.05,23.4
17:32:01,-0.73,1.14,-6.00,23.4
17:32:01,-0.80,0.46,-4.80,23.4
17:32:01,-0.21,0.25,-7.56,23.4
17:32:01,-1.03,-0.18,-8.66,23.4
17:32:01,-0.44,-0.51,-9.80,23.4
17:32:01,0.66,0.40,-11.77,23.4
17:32:01,0.95,0.09,-11.73,23.4
17:32:01,1.20,0.12,-11.32,23.4
17:32:01,1.20,0.08,-10.03,23.4
17:32:01,1.01,0.16,-10.23,23.4
17:32:01,0.39,0.14,-10.06,23.4
17:32:01,0.36,0.08,-9.96,23.4
17:32:01,-0.07,0.10,-10.43,23.4
17:32:01,-0.66,-0.25,-10.45,23.4
17:32:01,-0.90,-0.64,-10.05,23.4
17:32:01,-0.53,-0.69,-9.75,23.4
17:32:01,-0.49,-0.88,-10.03,23.4
17:32:01,-0.12,-0.79,-10.49,23.4
17:32:01,0.30,-0.71,-11.66,23.4
17:32:01,0.47,-1.67,-11.66,23.4
17:32:01,0.52,-1.25,-11.74,23.4
17:32:01,0.85,-0.68,-10.34,23.4
17:32:01,0.82,-0.29,-8.87,23.4
17:32:01,0.67,0.29,-8.21,23.4
17:32:01,0.44,0.67,-8.24,23.4
17:32:01,0.59,0.57,-8.11,23.4
17:32:01,0.21,0.21,-8.91,23.4
17:32:01,-2.90,3.86,-9.93,23.4
17:32:01,1.63,-2.07,-14.57,23.4
17:32:01,1.01,-0.32,-11.28,23.4
17:32:01,0.92,0.13,-8.45,23.4
17:32:01,0.33,-0.13,-10.59,23.4
17:32:02,1.13,-0.60,-9.75,23.4
17:32:02,0.69,0.25,-9.45,23.4
17:32:02,-0.07,0.07,-8.39,23.4
17:32:02,-0.82,0.35,-7.95,23.4
17:32:02,-1.33,0.31,-7.89,23.4
17:32:02,-0.49,-0.30,-9.67,23.4
17:32:02,0.87,-0.01,-10.82,23.4
17:32:02,3.29,-0.29,-1.46,23.4
17:32:02,3.05,1.13,-9.55,23.4
17:32:02,1.23,-0.38,-9.93,23.4
17:32:02,-0.14,-0.37,-9.80,23.4
17:32:02,-0.37,0.20,-10.12,23.4
17:32:02,-0.70,0.22,-9.63,23.4
17:32:02,-1.14,0.08,-9.86,23.4
17:32:02,-0.61,0.23,-9.84,23.4
17:32:02,-0.65,0.56,-10.03,23.4
17:32:02,-0.07,0.75,-10.14,23.4
17:32:02,0.19,0.44,-10.04,23.4
17:32:02,0.58,0.00,-9.27,23.4
17:32:02,0.50,1.45,-11.18,23.4
17:32:02,-0.25,0.18,-10.39,23.4
17:32:02,-0.15,-0.43,-10.73,23.4
17:32:02,-0.45,0.05,-9.36,23.4
17:32:02,-0.58,-0.91,-8.88,23.4
17:32:02,-0.94,-0.10,-12.30,23.4
17:32:02,-0.62,-0.79,-9.92,23.4
17:32:02,-0.35,0.15,-10.18,23.4
17:32:02,0.30,0.03,-9.76,23.4
17:32:02,0.27,-0.10,-10.04,23.4
17:32:02,0.25,0.27,-9.84,23.4
17:32:02,0.20,0.11,-9.69,23.4
17:32:02,0.35,0.03,-9.70,23.4
17:32:02,-0.36,0.18,-9.50,23.4
17:32:02,-0.70,0.04,-9.02,23.4
17:32:02,-0.99,-0.01,-9.49,23.4
17:32:02,-1.92,-0.52,-9.75,23.4
17:32:02,-0.20,-0.80,-10.37,23.4
17:32:02,0.43,0.53,-6.22,23.4
17:32:02,1.81,1.85,-9.46,23.4
17:32:02,2.01,0.67,-9.59,23.4
17:32:02,0.69,0.60,-9.91,23.4
17:32:02,-0.55,0.02,-9.61,23.4
17:32:02,-0.45,-0.22,-9.39,23.4
17:32:02,-0.78,0.17,-10.07,23.4
17:32:02,-0.34,0.42,-10.77,23.4
17:32:02,-0.41,0.11,-10.15,23.4
17:32:02,-0.57,0.38,-9.64,23.4
17:32:02,-0.43,0.50,-9.59,23.4
17:32:02,-0.15,0.94,-9.95,23.4
17:32:02,0.60,0.69,-9.96,23.4
17:32:02,-0.35,-0.45,-9.27,23.4
17:32:02,0.07,-0.33,-9.97,23.4
17:32:02,0.07,-0.28,-9.50,23.4
17:32:02,-0.07,0.02,-9.95,23.4
17:32:02,-0.12,0.22,-12.34,23.4
17:32:02,-0.44,-0.19,-12.54,23.4
17:32:02,0.38,-0.53,-10.71,23.4
17:32:02,-0.30,-0.45,-9.50,23.4
17:32:02,-0.91,-0.92,-8.03,23.4
17:32:02,-0.44,-0.19,-8.43,23.4
17:32:02,-0.20,-0.39,-9.15,23.4
17:32:02,-0.10,0.50,-9.55,23.4
17:32:02,-0.44,-0.22,-10.02,23.4
17:32:02,0.07,0.66,-10.26,23.4
17:32:02,0.07,0.14,-10.51,23.4
17:32:02,0.88,0.22,-9.77,23.4
17:32:02,0.45,0.35,-9.74,23.4
17:32:02,1.20,0.84,-10.46,23.4
17:32:02,0.37,0.23,-9.88,23.4
17:32:02,0.12,0.31,-10.28,23.4
17:32:02,-0.52,-0.31,-9.49,23.4
17:32:02,0.19,0.02,-10.14,23.4
17:32:02,-0.01,0.13,-10.10,23.4
17:32:02,0.04,0.27,-10.14,23.4
17:32:02,0.02,-0.08,-10.04,23.4
17:32:02,0.15,0.32,-9.98,23.4
17:32:02,0.22,1.22,-10.10,23.4
17:32:02,0.26,-0.32,-9.25,23.4
17:32:02,0.41,1.57,-10.32,23.4
17:32:02,-1.42,-2.33,-10.35,23.4
17:32:02,-0.65,0.07,-11.61,23.4
17:32:02,-0.79,-0.75,-11.19,23.4
17:32:02,-0.17,0.07,-9.93,23.4
17:32:02,-0.23,0.07,-10.00,23.4
17:32:02,-0.72,-0.55,-9.96,23.4
17:32:02,-0.82,-0.55,-9.94,23.4
17:32:02,-0.37,-0.19,-9.90,23.4
17:32:02,-0.50,-0.87,-9.68,23.4
17:32:02,-0.25,-0.62,-10.42,23.4
17:32:02,0.01,-0.55,-11.15,23.4
17:32:02,-0.43,-0.36,-9.79,23.4
17:32:02,-0.19,0.04,-10.54,23.4
17:32:02,-0.07,0.52,-10.56,23.4
17:32:02,0.47,0.47,-9.90,23.4
17:32:02,0.30,0.45,-9.76,23.4
17:32:02,-0.10,0.45,-10.32,23.4
17:32:02,-0.04,-0.07,-9.31,23.4
17:32:02,1.50,0.94,-10.55,23.4
17:32:02,-0.38,-0.10,-9.40,23.4
17:32:03,0.67,0.67,-10.09,23.4
17:32:03,0.46,-0.19,-10.67,23.4
17:32:03,-0.36,0.38,-9.70,23.4
17:32:03,0.03,0.21,-10.00,23.4
17:32:03,0.76,0.65,-11.14,23.4
17:32:03,-0.39,0.62,-6.55,23.4
17:32:03,0.51,0.18,-10.01,23.4
17:32:03,0.33,0.73,-10.64,23.4
17:32:03,0.56,-1.62,-9.28,23.4
17:32:03,-0.10,0.90,-10.79,23.4
17:32:03,0.51,-0.70,-10.17,23.4
17:32:03,0.18,0.02,-10.27,23.4
17:32:03,-0.33,-0.12,-10.09,23.4
17:32:03,-0.92,-0.60,-8.75,23.4
17:32:03,-0.64,0.13,-9.82,23.4
17:32:03,-0.67,0.07,-10.18,23.4
17:32:03,-0.42,0.56,-10.39,23.4
17:32:03,-0.63,-0.32,-10.03,23.4
17:32:03,-0.49,0.52,-10.07,23.4
17:32:03,-0.90,-0.80,-9.65,23.4
17:32:03,-0.58,0.56,-10.06,23.4
17:32:03,-0.45,-0.25,-9.52,23.4
17:32:03,-0.87,-0.14,-9.55,23.4
17:32:03,-0.57,0.08,-9.47,23.4
17:32:03,-0.37,0.29,-9.60,23.4
17:32:03,-0.27,-0.23,-9.77,23.4
17:32:03,0.54,1.76,-10.21,23.4
17:32:03,-1.55,-0.11,-9.94,23.4
17:32:03,-0.51,0.20,-11.60,23.4
17:32:03,-1.55,1.29,-14.32,23.4
17:32:03,0.19,-1.26,-10.25,23.4
17:32:03,0.18,0.26,-10.29,23.4
17:32:03,-0.01,-0.23,-10.10,23.4
17:32:03,-0.31,-0.28,-10.06,23.4
17:32:03,-0.22,0.16,-11.09,23.4
17:32:03,-0.05,0.39,-10.23,23.4
17:32:03,0.40,0.38,-9.56,23.4
17:32:03,0.11,0.45,-10.12,23.4
17:32:03,0.05,0.21,-9.66,23.4
17:32:03,-0.04,0.36,-8.94,23.4
17:32:03,-0.37,0.20,-9.36,23.4
17:32:03,-0.41,0.57,-13.04,23.4
17:32:03,0.33,0.00,-10.89,23.4
17:32:03,1.23,0.64,-11.31,23.4
17:32:03,0.12,0.73,-10.37,23.4
17:32:03,0.06,-0.08,-10.43,23.4
17:32:03,-0.02,0.00,-10.46,23.4
17:32:03,-0.36,0.18,-10.31,23.4
17:32:03,-0.55,-0.02,-9.96,23.4
17:32:03,-0.99,-0.14,-10.38,23.4
17:32:03,-1.10,-0.15,-9.32,23.4
17:32:03,0.71,0.12,-9.16,23.4
17:32:03,0.11,0.48,-9.70,23.4
17:32:03,-0.79,0.15,-9.91,23.4
17:32:03,-0.79,-0.01,-9.83,23.4
17:32:03,-0.93,0.06,-9.83,23.4
17:32:03,-0.83,-0.03,-9.84,23.4
17:32:03,-0.72,-0.03,-9.99,23.4
17:32:03,-0.83,0.00,-9.99,23.4
17:32:03,-0.68,0.02,-9.95,23.4
17:32:03,-0.73,0.04,-9.82,23.4
17:32:03,-0.72,0.02,-9.67,23.4
17:32:03,-0.17,0.20,-9.71,23.4
17:32:03,0.05,0.47,-9.83,23.4
17:32:03,-0.54,0.39,-10.15,23.4
17:32:03,0.10,0.13,-10.49,23.4
17:32:03,0.34,0.36,-10.28,23.4
17:32:03,0.18,0.07,-10.20,23.4
17:32:03,-1.30,1.54,-11.38,23.4
17:32:03,-0.09,-0.39,-10.14,23.4
17:32:03,-0.42,0.09,-10.18,23.4
17:32:03,-0.14,-0.24,-10.15,23.4
17:32:03,-0.12,-0.18,-10.06,23.4
17:32:03,-0.05,0.05,-10.15,23.4
17:32:03,-0.22,0.34,-10.03,23.4
17:32:03,0.00,0.24,-10.09,23.4
17:32:03,-0.12,0.25,-10.12,23.4
17:32:03,-0.37,0.21,-9.89,23.4
17:32:03,-0.52,-0.43,-10.82,23.4
17:32:03,-0.16,0.16,-10.15,23.4
17:32:03,0.47,0.25,-10.47,23.4
17:32:03,0.16,0.07,-10.39,23.4
17:32:03,0.22,-0.08,-10.41,23.4
17:32:03,-0.71,-0.41,-9.62,23.4
17:32:03,-0.23,0.15,-10.07,23.4
17:32:03,-0.03,0.12,-9.78,23.4
17:32:03,-0.97,-0.29,-10.01,23.4
17:32:03,-1.03,0.03,-9.98,23.4
17:32:03,-1.04,0.02,-9.95,23.4
17:32:03,-0.74,0.00,-10.30,23.4
17:32:03,-0.43,0.14,-10.02,23.4
17:32:03,-0.21,-0.14,-10.12,23.4
17:32:03,-0.44,-0.15,-9.97,23.4
17:32:03,-0.57,-0.15,-9.96,23.4
17:32:03,-0.54,-0.08,-9.90,23.4
17:32:03,-0.64,-0.01,-9.88,23.4
17:32:03,-0.60,-0.05,-9.92,23.4
17:32:03,-0.67,0.02,-9.91,23.4
17:32:03,-0.62,-0.01,-9.91,23.4
17:32:03,-0.42,0.00,-9.94,23.4
17:32:04,-0.21,0.12,-9.77,23.4
17:32:04,-0.25,0.01,-9.92,23.4
17:32:04,-0.22,0.22,-9.87,23.4
17:32:04,0.36,0.43,-9.77,23.4
17:32:04,0.38,0.00,-10.19,23.4
17:32:04,-1.74,1.27,-10.29,23.4
17:32:04,-0.72,-0.77,-9.81,23.4
17:32:04,-0.54,-0.01,-10.20,23.4
17:32:04,-0.31,-0.15,-10.01,23.4
17:32:04,-0.20,-0.07,-10.09,23.4
17:32:04,-0.13,0.11,-10.10,23.4
17:32:04,0.17,0.09,-10.12,23.4
17:32:04,0.00,0.19,-10.10,23.4
17:32:04,-0.09,-0.02,-10.02,23.4
17:32:04,-0.15,0.06,-9.90,23.4
17:32:04,-0.01,0.01,-10.13,23.4
17:32:04,-0.05,-0.01,-10.11,23.4
17:32:04,-0.09,0.04,-10.04,23.4
17:32:04,-0.20,-0.59,-10.08,23.4
17:32:04,-0.31,0.10,-10.30,23.4
17:32:04,-0.16,-0.14,-10.20,23.4
17:32:04,-0.23,-0.21,-10.30,23.4
17:32:04,-0.15,0.06,-10.03,23.4
17:32:04,-0.02,0.11,-10.32,23.4
17:32:04,-0.01,-0.06,-10.37,23.4
17:32:04,-0.09,0.10,-10.18,23.4
17:32:04,-0.20,0.00,-9.92,23.4
17:32:04,-0.33,-0.11,-9.97,23.4
17:32:04,-0.16,0.09,-10.06,23.4
17:32:04,-0.97,-1.05,-9.15,23.4
17:32:04,-0.13,0.27,-10.00,23.4
17:32:04,-0.32,-0.22,-9.97,23.4
17:32:04,-0.29,-0.02,-10.15,23.4
17:32:04,-0.32,0.00,-10.05,23.4
17:32:04,-0.61,0.04,-10.04,23.4
17:32:04,-0.50,0.03,-10.07,23.4
17:32:04,-0.51,-0.08,-9.99,23.4
17:32:04,-0.51,-0.07,-10.07,23.4
17:32:04,-0.52,0.14,-9.96,23.4
17:32:04,-0.59,0.00,-9.99,23.4
17:32:04,-0.64,0.02,-9.92,23.4
17:32:04,-0.51,-0.03,-9.90,23.4
17:32:04,-0.51,-0.06,-9.92,23.4
17:32:04,-0.47,-0.06,-9.90,23.4
17:32:04,-0.44,-0.12,-9.83,23.4
17:32:04,-0.94,-0.15,-9.63,23.4
17:32:04,-0.18,0.15,-9.79,23.4
17:32:04,0.33,0.67,-9.75,23.4
17:32:04,-0.45,-0.21,-9.86,23.4
17:32:04,2.58,2.71,-15.07,23.4
17:32:04,-0.46,-0.99,-9.88,23.4
17:32:04,-0.19,0.43,-10.45,23.4
17:32:04,-0.10,-0.09,-10.02,23.4
17:32:04,-0.52,-0.45,-10.30,23.4
17:32:04,0.20,-0.13,-10.64,23.4
17:32:04,-0.33,0.43,-10.90,23.4
17:32:04,-0.10,0.09,-9.92,23.4
17:32:04,0.20,0.38,-10.06,23.4
17:32:04,0.29,0.36,-10.02,23.4
17:32:04,0.26,0.19,-9.75,23.4
17:32:04,0.03,0.30,-9.68,23.4
17:32:04,0.04,0.29,-9.20,23.4
17:32:04,-0.07,0.30,-9.15,23.4
17:32:04,0.37,0.18,-12.23,23.4
17:32:04,0.41,-0.15,-10.92,23.4
17:32:04,0.20,0.12,-9.87,23.4
17:32:04,-0.02,-0.10,-10.05,23.4
17:32:04,0.12,-0.34,-9.87,23.4
17:32:04,-0.32,-0.38,-9.81,23.4
17:32:04,-0.08,0.02,-9.97,23.4
17:32:04,0.23,0.05,-10.47,23.4
17:32:04,0.01,0.07,-10.36,23.4
17:32:04,0.01,-0.03,-10.33,23.4
17:32:04,-0.27,-0.02,-9.90,23.4
17:32:04,-0.34,0.12,-9.95,23.4
17:32:04,-0.36,-0.25,-9.89,23.4
17:32:04,-0.52,-0.58,-9.69,23.4
17:32:04,-0.37,0.26,-9.99,23.4
17:32:04,-0.39,-0.01,-10.15,23.4
17:32:04,-0.39,0.06,-10.23,23.4
17:32:04,-0.43,0.00,-10.10,23.4
17:32:04,-0.48,0.01,-10.03,23.4
17:32:04,-0.45,-0.06,-9.96,23.4
17:32:04,-0.56,-0.28,-9.70,23.4
17:32:04,-0.43,0.11,-9.90,23.4
17:32:04,-0.47,0.02,-9.79,23.4
17:32:04,-0.29,-0.02,-9.80,23.4
17:32:04,0.42,0.24,-9.90,23.4
17:32:04,-1.64,0.20,-9.30,23.4
17:32:04,0.70,0.12,-9.54,23.4
17:32:04,-0.39,-0.25,-10.19,23.4
17:32:04,-0.55,-0.13,-10.00,23.4
17:32:04,-0.40,-0.26,-10.19,23.4
17:32:04,0.00,0.12,-10.06,23.4
17:32:04,-0.14,0.13,-10.12,23.4
17:32:04,-0.19,0.00,-10.10,23.4
17:32:04,-0.20,0.10,-10.08,23.4
17:32:04,0.09,0.06,-10.03,23.4
17:32:04,-0.11,0.13,-10.10,23.4
17:32:04,-0.33,-0.14,-9.98,23.4
17:32:04,-0.11,-0.01,-10.05,23.4
17:32:05,-0.33,0.04,-10.03,23.4
17:32:05,-0.11,0.15,-10.04,23.4
17:32:05,-0.40,-0.03,-9.98,23.4
17:32:05,-0.28,0.03,-9.97,23.4
17:32:05,0.25,0.14,-10.03,23.4
17:32:05,0.02,0.19,-10.05,23.4
17:32:05,0.13,0.18,-10.05,23.4
17:32:05,0.29,0.34,-10.02,23.4
17:32:05,0.07,0.18,-10.10,23.4
17:32:05,0.12,0.06,-10.09,23.4
17:32:05,-0.21,-0.20,-10.10,23.4
17:32:05,-0.27,-0.55,-10.50,23.4
17:32:05,0.13,0.26,-10.15,23.4
17:32:05,0.05,0.26,-10.14,23.4
17:32:05,-0.04,-0.18,-9.98,23.4
17:32:05,-0.07,0.03,-10.04,23.4
17:32:05,0.17,0.36,-10.18,23.4
17:32:05,-0.03,0.20,-9.99,23.4
17:32:05,0.15,0.15,-10.14,23.4
17:32:05,0.10,0.26,-10.08,23.4
17:32:05,-0.15,0.18,-9.84,23.4
17:32:05,-0.18,0.12,-10.77,23.4
17:32:05,0.16,0.45,-10.53,23.4
17:32:05,-0.26,-0.09,-10.27,23.4
17:32:05,0.66,-0.59,-9.14,23.4
17:32:05,-0.17,0.20,-10.60,23.4
17:32:05,0.02,-0.04,-10.47,23.4
17:32:05,-0.19,-0.07,-10.30,23.4
17:32:05,-0.61,-0.31,-9.94,23.4
17:32:05,-0.42,-0.41,-9.74,23.4
17:32:05,-0.64,-0.04,-9.66,23.4
17:32:05,-0.43,-0.06,-9.81,23.4
17:32:05,-0.27,0.13,-10.02,23.4
17:32:05,-0.38,0.22,-10.12,23.4
17:32:05,-0.49,-0.08,-10.12,23.4
17:32:05,-0.32,-0.01,-10.11,23.4
17:32:05,-0.47,-0.02,-9.94,23.4
17:32:05,-0.53,0.06,-9.87,23.4
17:32:05,-0.37,-0.11,-9.98,23.4
17:32:05,-0.38,-0.07,-9.91,23.4
17:32:05,-0.39,-0.13,-9.87,23.4
17:32:05,-0.37,0.03,-10.26,23.4
17:32:05,-0.49,-0.08,-9.70,23.4
17:32:05,-0.46,0.01,-9.72,23.4
17:32:05,-0.30,-0.06,-9.87,23.4
17:32:05,-0.02,0.02,-9.98,23.4
17:32:05,0.45,-0.32,-9.99,23.4
17:32:05,0.85,-0.03,-9.75,23.4
17:32:05,0.27,0.44,-10.40,23.4
17:32:05,-0.14,-0.08,-9.90,23.4
17:32:05,-0.62,0.19,-10.70,23.4
17:32:05,0.06,0.05,-10.12,23.4
17:32:05,0.03,0.00,-10.11,23.4
17:32:05,0.01,0.15,-9.97,23.4
17:32:05,-0.07,0.31,-10.26,23.4
17:32:05,0.04,0.38,-10.14,23.4
17:32:05,0.14,0.18,-10.14,23.4
17:32:05,0.31,0.33,-10.08,23.4
17:32:05,0.10,0.31,-10.10,23.4
17:32:05,0.15,0.26,-10.19,23.4
17:32:05,0.23,0.33,-9.99,23.4
17:32:05,-0.01,0.19,-9.53,23.4
17:32:05,0.14,0.27,-10.11,23.4
17:32:05,0.31,0.09,-10.32,23.4
17:32:05,-0.08,0.03,-10.27,23.4
17:32:05,0.04,0.34,-10.32,23.4
17:32:05,-0.35,-0.29,-10.22,23.4
17:32:05,0.33,0.36,-9.68,23.4
17:32:05,-0.33,-0.36,-9.74,23.4
17:32:05,-0.07,0.03,-10.05,23.4
17:32:05,-0.12,0.06,-10.12,23.4
17:32:05,0.07,0.07,-10.40,23.4
17:32:05,-0.06,0.14,-10.24,23.4
17:32:05,-0.15,0.04,-10.19,23.4
17:32:05,-0.24,-0.06,-9.89,23.4
17:32:05,-0.38,-0.08,-9.96,23.4
17:32:05,-0.23,0.00,-9.91,23.4
17:32:05,-0.35,0.00,-9.98,23.4
17:32:05,-0.22,0.00,-10.03,23.4
17:32:05,-0.37,-0.07,-9.97,23.4
17:32:05,-0.27,-0.16,-9.29,23.4
17:32:05,-0.40,-0.01,-9.82,23.4
17:32:05,-0.32,-0.05,-9.86,23.4
17:32:05,-0.48,-0.06,-9.93,23.4
17:32:05,-0.32,-0.12,-9.68,23.4
17:32:05,-0.20,-0.10,-9.94,23.4
17:32:05,0.05,0.15,-10.15,23.4
17:32:05,0.41,1.34,-12.75,23.4
17:32:05,0.44,-0.22,-9.74,23.4
17:32:05,-0.34,0.30,-10.01,23.4
17:32:05,0.01,0.08,-10.11,23.4
17:32:05,-0.37,-0.61,-10.13,23.4
17:32:05,0.03,0.01,-10.10,23.4
17:32:05,-0.17,0.00,-10.00,23.4
17:32:05,0.14,0.02,-10.10,23.4
17:32:05,-0.16,-0.15,-10.02,23.4
17:32:05,0.13,0.27,-10.05,23.4
17:32:05,-0.04,0.26,-10.29,23.4
17:32:05,-0.02,0.36,-10.06,23.4
17:32:05,-0.25,0.12,-10.23,23.4
17:32:05,0.40,0.27,-10.30,23.4
17:32:06,0.22,0.39,-10.11,23.4
17:32:06,0.06,-0.17,-10.07,23.4
17:32:06,0.14,0.15,-10.16,23.4
17:32:06,0.26,0.19,-10.05,23.4
17:32:06,-0.03,0.05,-10.15,23.4
17:32:06,-0.07,0.03,-9.98,23.4
17:32:06,-0.01,0.53,-10.18,23.4
17:32:06,0.01,0.24,-10.02,23.4
17:32:06,0.04,0.56,-10.04,23.4
17:32:06,-0.17,-0.10,-10.14,23.4
17:32:06,-0.07,-0.35,-10.09,23.4
17:32:06,-0.09,0.03,-10.02,23.4
17:32:06,-0.04,0.15,-9.98,23.4
17:32:06,-0.19,-0.07,-10.12,23.4
17:32:06,-0.22,-0.14,-9.96,23.4
17:32:06,-0.08,0.28,-10.28,23.4
17:32:06,-0.01,0.39,-10.10,23.4
17:32:06,-0.69,0.02,-10.40,23.4
17:32:06,-0.42,-0.04,-10.85,23.4
17:32:06,0.69,0.38,-11.75,23.4
17:32:06,-0.38,-0.52,-11.34,23.4
17:32:06,-0.14,-0.51,-9.12,23.4
17:32:06,-0.42,-0.07,-10.14,23.4
17:32:06,0.52,0.23,-9.79,23.4
17:32:06,-0.32,0.10,-9.86,23.4
17:32:06,-0.48,-0.06,-9.95,23.4
17:32:06,-1.02,-0.29,-9.39,23.4
17:32:06,-0.67,0.63,-9.80,23.4
17:32:06,-0.58,0.54,-9.78,23.4
17:32:06,-0.86,-0.02,-9.90,23.4
17:32:06,-0.63,-0.02,-10.00,23.4
17:32:06,-0.89,-0.04,-9.94,23.4
17:32:06,-0.78,-0.10,-9.72,23.4
17:32:06,-0.75,-0.16,-9.74,23.4
17:32:06,-0.64,-0.05,-9.87,23.4
17:32:06,-0.10,0.13,-9.75,23.4
17:32:06,0.28,0.24,-9.97,23.4
17:32:06,0.91,0.68,-9.78,23.4
17:32:06,0.26,0.24,-10.99,23.4
17:32:06,0.46,0.65,-9.56,23.4
17:32:06,-1.10,2.18,-12.86,23.4
17:32:06,-0.24,-1.59,-10.05,23.4
17:32:06,-0.69,0.94,-10.69,23.4
17:32:06,-0.65,-0.59,-9.96,23.4
17:32:06,-0.37,-0.07,-10.05,23.4
17:32:06,0.05,0.07,-10.21,23.4
17:32:06,-0.02,0.28,-10.14,23.4
17:32:06,-0.08,0.20,-10.04,23.4
17:32:06,-0.22,0.12,-10.07,23.4
17:32:06,-0.12,0.17,-10.09,23.4
17:32:06,0.00,0.24,-10.21,23.4
17:32:06,-0.13,0.06,-10.13,23.4
17:32:06,-0.48,-0.36,-9.81,23.4
17:32:06,-0.66,-0.05,-10.39,23.4
17:32:06,0.30,0.43,-9.62,23.4
17:32:06,0.66,-0.12,-10.58,23.4
17:32:06,0.22,0.24,-10.52,23.4
17:32:06,0.12,-0.18,-10.42,23.4
17:32:06,-0.08,0.19,-10.32,23.4
17:32:06,-0.47,-0.09,-9.76,23.4
17:32:06,-0.10,0.62,-9.95,23.4
17:32:06,-0.65,-0.18,-10.02,23.4
17:32:06,-0.38,0.07,-9.91,23.4
17:32:06,-0.36,0.17,-9.93,23.4
17:32:06,-0.51,0.08,-10.03,23.4
17:32:06,-0.43,-0.05,-10.09,23.4
17:32:06,-0.54,0.01,-10.02,23.4
17:32:06,-0.46,-0.09,-9.95,23.4
17:32:06,-0.52,-0.09,-9.83,23.4
17:32:06,-0.59,-0.04,-9.95,23.4
17:32:06,-0.58,-0.03,-10.03,23.4
17:32:06,-0.53,-0.12,-9.83,23.4
17:32:06,-0.36,0.28,-9.73,23.4
17:32:06,-0.44,0.14,-9.65,23.4
17:32:06,-0.52,-0.21,-10.41,23.4
17:32:06,0.09,0.45,-10.02,23.4
17:32:06,0.85,0.57,-9.08,23.4
17:32:06,0.06,1.08,-11.18,23.4
17:32:06,-0.35,-0.62,-9.66,23.4
17:32:06,-0.65,-0.45,-9.84,23.4
17:32:06,-0.08,-0.24,-10.21,23.4
17:32:06,-0.45,-0.38,-10.03,23.4
17:32:06,-0.17,0.16,-10.10,23.4
17:32:06,0.15,-0.10,-9.94,23.4
17:32:06,-0.03,0.05,-10.10,23.4
17:32:06,-0.29,0.41,-10.24,23.4
17:32:06,-0.02,0.53,-10.60,23.4
17:32:06,-0.52,-0.96,-10.02,23.4
17:32:06,0.13,0.56,-10.90,23.4
17:32:06,0.52,0.22,-10.43,23.4
17:32:06,-0.18,-0.22,-10.33,23.4
17:32:06,-0.67,-0.60,-10.06,23.4
17:32:06,-0.39,0.23,-9.12,23.4
17:32:06,0.16,0.52,-10.22,23.4
17:32:06,-0.72,-0.22,-10.04,23.4
17:32:06,-0.35,0.15,-10.10,23.4
17:32:06,-0.52,0.24,-9.88,23.4
17:32:06,-0.87,0.10,-10.03,23.4
17:32:06,-0.30,0.44,-10.05,23.4
17:32:07,0.47,0.49,-10.05,23.4
17:32:07,0.03,0.23,-9.94,23.4
17:32:07,-0.52,-0.16,-9.89,23.4
17:32:07,-0.76,-0.10,-9.80,23.4
17:32:07,-0.54,-0.04,-9.86,23.4
17:32:07,-0.65,-0.07,-9.85,23.4
17:32:07,-0.71,-0.10,-9.96,23.4
17:32:07,-0.65,-0.13,-9.77,23.4
17:32:07,-0.49,0.11,-9.67,23.4
17:32:07,0.71,0.77,-9.39,23.4
17:32:07,-0.63,0.76,-9.76,23.4
17:32:07,1.23,0.53,-8.81,23.4
17:32:07,-0.40,0.17,-10.10,23.4
17:32:07,-0.30,-0.29,-9.83,23.4
17:32:07,-0.50,-0.73,-9.87,23.4
17:32:07,-0.19,0.21,-9.98,23.4
17:32:07,-0.74,-0.53,-10.15,23.4
17:32:07,-0.21,0.07,-10.07,23.4
17:32:07,-0.62,-0.40,-10.30,23.4
17:32:07,-0.22,0.13,-10.65,23.4
17:32:07,-0.47,0.48,-10.60,23.4
17:32:07,-0.51,-0.16,-10.80,23.4
17:32:07,0.25,0.34,-10.22,23.4
17:32:07,-0.79,-0.34,-9.89,23.4
17:32:07,-0.68,-0.08,-9.97,23.4
17:32:07,-1.03,-0.69,-9.63,23.4
17:32:07,0.24,0.72,-10.09,23.4
17:32:07,-0.28,0.22,-10.07,23.4
17:32:07,-0.39,-0.08,-10.10,23.4
17:32:07,-0.37,0.12,-10.17,23.4
17:32:07,-0.40,0.05,-9.99,23.4
17:32:07,-0.25,-0.07,-10.03,23.4
17:32:07,-0.40,-0.16,-9.99,23.4
17:32:07,0.56,0.54,-10.10,23.4
17:32:07,0.41,0.55,-9.93,23.4
17:32:07,0.33,-0.11,-10.29,23.4
17:32:07,0.92,0.89,-9.79,23.4
17:32:07,-1.11,-0.27,-10.05,23.4
17:32:07,-0.18,0.41,-9.72,23.4
17:32:07,-1.68,0.85,-9.75,23.4
17:32:07,-0.63,-0.67,-9.64,23.4
17:32:07,0.17,0.60,-11.07,23.4
17:32:07,-0.20,-0.72,-10.43,23.4
17:32:07,-0.20,0.14,-12.54,23.4
17:32:07,0.34,-0.02,-8.89,23.4
17:32:07,0.19,0.10,-7.74,23.4
17:32:07,-0.08,-0.29,-9.25,23.4
17:32:07,-0.12,-0.69,-9.98,23.4
17:32:07,-0.06,-0.23,-10.44,23.4
17:32:07,-0.08,0.06,-10.84,23.4
17:32:07,-0.85,-0.08,-10.63,23.4
17:32:07,-0.10,-0.27,-10.04,23.4
17:32:07,-0.42,-0.51,-10.08,23.4
17:32:07,0.46,0.62,-9.69,23.4
17:32:07,-0.42,-1.16,-9.66,23.4
17:32:07,-0.08,0.49,-10.13,23.4
17:32:07,-0.05,0.34,-9.93,23.4
17:32:07,-0.35,0.26,-9.95,23.4
17:32:07,-0.32,0.18,-10.02,23.4
17:32:07,-0.49,0.02,-10.18,23.4
17:32:07,-0.37,-0.06,-10.22,23.4
17:32:07,-0.68,0.49,-10.20,23.4
17:32:07,-0.41,-0.33,-9.85,23.4
17:32:07,-0.50,-0.14,-9.98,23.4
17:32:07,-0.48,-0.11,-9.88,23.4
17:32:07,-0.50,-0.05,-9.97,23.4
17:32:07,-0.66,0.04,-9.99,23.4
17:32:07,-0.56,0.16,-10.18,23.4
17:32:07,-0.54,0.09,-10.08,23.4
17:32:07,-0.54,-0.08,-9.96,23.4
17:32:07,-0.57,-0.16,-9.90,23.4
17:32:07,-0.51,0.03,-10.03,23.4
17:32:07,-0.55,-0.21,-9.93,23.4
17:32:07,-0.12,0.59,-9.91,23.4
17:32:07,-1.00,-0.94,-9.91,23.4
17:32:07,0.39,0.73,-9.88,23.4
17:32:07,-0.84,-0.71,-9.81,23.4
17:32:07,0.14,0.51,-10.16,23.4
17:32:07,0.47,0.03,-9.12,23.4
17:32:07,0.40,0.34,-9.64,23.4
17:32:07,-1.24,2.02,-11.30,23.4
17:32:07,-0.88,-1.61,-9.79,23.4
17:32:07,-0.83,-0.41,-9.96,23.4
17:32:07,-0.49,-0.20,-10.01,23.4
17:32:07,-0.10,0.03,-10.02,23.4
17:32:07,-0.11,-0.01,-10.12,23.4
17:32:07,0.00,0.13,-10.14,23.4
17:32:07,-0.28,-0.19,-10.40,23.4
17:32:07,0.41,0.55,-10.51,23.4
17:32:07,-0.51,-0.13,-9.82,23.4
17:32:07,0.10,0.56,-10.07,23.4
17:32:07,0.15,0.22,-10.42,23.4
17:32:07,0.18,0.01,-10.22,23.4
17:32:07,0.00,0.18,-10.17,23.4
17:32:07,-0.08,0.09,-10.03,23.4
17:32:07,-0.60,-0.32,-10.21,23.4
17:32:07,-0.67,-0.43,-10.17,23.4
17:32:07,-1.28,-0.64,-10.39,23.4
17:32:07,-0.73,-0.42,-9.96,23.4
17:32:07,0.35,0.56,-10.11,23.4
17:32:07,0.00,0.45,-10.21,23.4
17:32:08,-0.58,0.25,-9.84,23.4
17:32:08,-0.68,0.01,-9.99,23.4
17:32:08,-0.67,0.05,-10.04,23.4
17:32:08,-0.60,-0.06,-9.97,23.4
17:32:08,-0.75,-0.05,-9.78,23.4
17:32:08,-0.82,0.03,-9.90,23.4
17:32:08,-0.70,-0.19,-9.91,23.4
17:32:08,-0.77,0.04,-9.97,23.4
17:32:08,-0.78,0.01,-10.12,23.4
17:32:08,-0.59,0.05,-10.13,23.4
17:32:08,-0.71,0.07,-10.06,23.4
17:32:08,-0.20,-0.04,-10.05,23.4
17:32:08,-0.63,0.00,-9.97,23.4
17:32:08,-0.69,-0.11,-10.00,23.4
17:32:08,-0.72,-0.01,-9.97,23.4
17:32:08,-0.74,0.00,-10.08,23.4
17:32:08,-0.59,-0.11,-9.91,23.4
17:32:08,-0.69,-0.06,-10.04,23.4
17:32:08,-0.74,-0.04,-9.81,23.4
17:32:08,-0.72,-0.02,-9.86,23.4
17:32:08,-0.65,-0.05,-9.89,23.4
17:32:08,-0.66,0.07,-9.94,23.4
17:32:08,-0.62,-0.03,-10.03,23.4
17:32:08,-0.40,-0.07,-9.99,23.4
17:32:08,-0.42,-0.01,-9.97,23.4
17:32:08,-0.74,0.18,-11.17,23.4
17:32:08,-0.24,-0.18,-9.93,23.4
17:32:08,-0.38,0.07,-9.86,23.4
17:32:08,0.03,0.01,-10.12,23.4
17:32:08,0.24,0.25,-10.26,23.4
17:32:08,0.24,1.68,-12.91,23.4
17:32:08,0.31,-0.11,-10.11,23.4
17:32:08,-0.22,0.07,-9.97,23.4
17:32:08,-0.44,-0.06,-9.97,23.4
17:32:08,-0.32,0.00,-10.19,23.4
17:32:08,-0.08,0.07,-10.05,23.4
17:32:08,0.02,0.16,-10.06,23.4
17:32:08,-0.02,0.30,-10.23,23.4
17:32:08,-0.14,0.06,-10.19,23.4
17:32:08,-0.24,-0.24,-9.90,23.4
17:32:08,-0.16,-0.56,-10.37,23.4
17:32:08,0.07,0.00,-10.11,23.4
17:32:08,-0.05,0.15,-10.09,23.4
17:32:08,0.07,0.23,-10.18,23.4
17:32:08,-0.06,0.16,-9.99,23.4
17:32:08,-0.04,-0.13,-10.02,23.4
17:32:08,0.10,0.14,-10.08,23.4
17:32:08,-0.11,0.04,-10.09,23.4
17:32:08,-0.02,0.06,-10.02,23.4
17:32:08,0.04,0.26,-10.11,23.4
17:32:08,-0.07,0.11,-9.95,23.4
17:32:08,-0.03,0.10,-10.00,23.4
17:32:08,0.02,0.12,-10.00,23.4
17:32:08,-0.06,0.10,-10.07,23.4
17:32:08,-0.04,0.07,-10.05,23.4
17:32:08,-0.08,0.06,-10.14,23.4
17:32:08,0.01,0.09,-10.03,23.4
17:32:08,0.07,0.21,-10.08,23.4
17:32:08,-0.07,0.10,-10.09,23.4
17:32:08,0.02,0.08,-9.99,23.4
17:32:08,-0.01,0.04,-10.01,23.4
17:32:08,0.04,0.02,-10.02,23.4
17:32:08,0.00,0.17,-9.97,23.4
17:32:08,0.10,0.12,-10.00,23.4
17:32:08,0.00,0.12,-10.01,23.4
17:32:08,0.07,0.09,-10.07,23.4
17:32:08,0.07,-0.01,-10.07,23.4
17:32:08,-0.12,0.11,-10.04,23.4
17:32:08,-0.06,0.12,-10.09,23.4
17:32:08,-0.01,0.09,-10.07,23.4
17:32:08,-0.03,0.05,-10.07,23.4
17:32:08,-0.03,0.17,-10.08,23.4
17:32:08,-0.01,-0.03,-10.10,23.4
17:32:08,0.04,0.17,-10.11,23.4
17:32:08,0.03,0.15,-10.13,23.4
17:32:08,0.03,0.16,-10.00,23.4
17:32:08,-0.02,0.08,-10.06,23.4
17:32:08,-0.03,0.16,-10.14,23.4
17:32:08,0.11,0.12,-10.08,23.4
17:32:08,-0.07,0.11,-10.02,23.4
17:32:08,-0.01,0.15,-10.03,23.4
17:32:08,0.11,-0.02,-10.09,23.4
17:32:08,-0.02,0.22,-10.09,23.4
17:32:08,0.04,0.00,-10.09,23.4
17:32:08,0.00,0.10,-10.03,23.4
17:32:08,-0.04,0.09,-10.14,23.4
17:32:08,-0.02,-0.01,-10.06,23.4
17:32:08,-0.05,0.05,-10.09,23.4
17:32:08,-0.07,0.21,-10.10,23.4
17:32:08,-0.09,0.13,-9.99,23.4
17:32:08,-0.10,0.15,-10.19,23.4
17:32:08,-0.04,0.17,-10.09,23.4
17:32:08,-0.05,0.05,-10.00,23.4
17:32:08,0.05,0.15,-10.07,23.4
17:32:08,0.03,0.13,-9.99,23.4
17:32:08,0.00,-0.01,-10.17,23.4
17:32:08,0.00,0.00,-9.99,23.4
17:32:08,-0.11,0.15,-10.04,23.4
17:32:08,0.06,0.07,-10.12,23.4
17:32:08,0.01,0.09,-10.07,23.4
17:32:09,-0.13,0.18,-9.95,23.4
17:32:09,0.04,0.10,-9.99,23.4
17:32:09,-0.03,0.27,-10.09,23.4
17:32:09,0.02,0.14,-10.03,23.4
17:32:09,-0.04,-0.08,-10.06,23.4
17:32:09,0.00,0.17,-10.06,23.4
17:32:09,0.00,0.15,-10.09,23.4
17:32:09,0.02,1.81,-10.23,23.4
17:32:09,-0.78,1.98,-10.44,23.4
17:32:09,-0.13,2.31,-10.04,23.4
17:32:09,2.46,3.34,-10.32,23.4
17:32:09,1.30,5.97,-10.67,23.4
17:32:09,1.26,4.52,-12.45,23.4
17:32:09,0.86,5.24,-8.84,23.4
17:32:09,-0.21,4.63,-9.40,23.4
17:32:09,0.80,4.36,-6.34,23.4
17:32:09,0.01,2.57,-6.72,23.4
17:32:09,-1.43,0.42,-11.71,23.4
17:32:09,-1.97,0.08,-6.27,23.4
17:32:09,-1.42,-0.29,-10.28,23.4
17:32:09,0.01,-1.85,-7.87,23.4
17:32:09,-0.05,-1.34,-8.85,23.4
17:32:09,-0.29,-2.47,-12.05,23.4
17:32:09,1.77,-2.83,-10.11,23.4
17:32:09,-0.45,-4.45,-12.76,23.4
17:32:09,0.08,-2.84,-11.51,23.4
17:32:09,-0.05,-4.11,-9.49,23.4
17:32:09,0.14,-3.80,-14.83,23.4
17:32:09,-0.12,-3.29,-17.58,23.4
17:32:09,0.04,-2.92,-9.12,23.4
17:32:09,0.30,-3.98,-8.63,23.4
17:32:09,0.10,-3.05,-9.78,23.4
17:32:09,0.29,-2.54,-9.82,23.4
17:32:09,0.51,-1.05,-9.99,23.4
17:32:09,0.24,-0.39,-10.02,23.4
17:32:09,0.44,-0.98,-10.06,23.4
17:32:09,0.16,-0.95,-9.90,23.4
17:32:09,0.41,-0.27,-10.01,23.4
17:32:09,0.03,-0.78,-9.90,23.4
17:32:09,0.50,-1.71,-9.38,23.4
17:32:09,0.83,0.04,-9.88,23.4
17:32:09,0.20,-1.13,-10.93,23.4
17:32:09,0.10,-1.68,-10.82,23.4
17:32:09,0.22,-2.13,-10.19,23.4
17:32:09,-0.78,-1.98,-12.32,23.4
17:32:09,-0.78,-3.84,-10.23,23.4
17:32:09,-0.48,-3.01,-10.11,23.4
17:32:09,-0.44,-4.35,-6.14,23.4
17:32:09,-0.53,-3.21,-10.41,23.4
17:32:09,-0.42,-3.59,-6.52,23.4
17:32:09,-0.83,-2.06,-12.42,23.4
17:32:09,0.11,-1.58,-16.11,23.4
17:32:09,0.34,-1.67,-11.07,23.4
17:32:09,-0.39,-1.12,-8.79,23.4
17:32:09,0.00,-0.19,-8.43,23.4
17:32:09,-0.33,0.40,-10.91,23.4
17:32:09,-1.02,1.28,-8.56,23.4
17:32:09,0.34,1.02,-4.43,23.4
17:32:09,-0.65,1.60,-6.76,23.4
17:32:09,0.40,2.73,-3.01,23.4
17:32:09,0.33,3.65,-15.23,23.4
17:32:09,0.43,3.79,-11.73,23.4
17:32:09,-0.50,4.78,-8.74,23.4
17:32:09,-0.13,4.85,-11.35,23.4
17:32:09,-0.26,4.12,-9.63,23.4
17:32:09,0.27,5.02,-9.71,23.4
17:32:09,0.18,4.54,-10.11,23.4
17:32:09,-0.19,1.08,-9.99,23.4
17:32:09,-0.11,3.99,-10.65,23.4
17:32:09,0.23,1.18,-10.33,23.4
17:32:09,0.57,1.74,-9.86,23.4
17:32:09,0.71,3.28,-9.23,23.4
17:32:09,0.91,0.96,-12.76,23.4
17:32:09,-0.65,1.22,-11.84,23.4
17:32:09,-0.82,2.04,-8.99,23.4
17:32:09,0.17,1.36,-6.77,23.4
17:32:09,0.07,1.09,-9.80,23.4
17:32:09,0.41,0.85,-10.25,23.4
17:32:09,1.80,1.39,-9.23,23.4
17:32:09,1.27,-0.58,-7.55,23.4
17:32:09,1.02,1.69,-11.83,23.4
17:32:09,0.30,-1.40,-16.94,23.4
17:32:09,0.39,-0.12,-13.74,23.4
17:32:09,-1.30,-0.83,-4.95,23.4
17:32:09,-1.41,-0.44,-14.64,23.4
17:32:09,-1.09,-3.47,-6.11,23.4
17:32:09,-0.97,-2.26,-9.34,23.4
17:32:09,-1.37,-3.57,-8.83,23.4
17:32:09,-1.42,-2.14,-9.80,23.4
17:32:09,-0.71,-2.62,-10.21,23.4
17:32:09,-0.58,-1.43,-9.70,23.4
17:32:09,-0.11,-1.80,-9.78,23.4
17:32:09,0.68,-0.57,-9.96,23.4
17:32:09,-1.12,-3.64,-10.21,23.4
17:32:09,0.39,-1.05,-10.26,23.4
17:32:09,0.04,-1.17,-9.78,23.4
17:32:09,-0.02,-1.59,-9.97,23.4
17:32:09,0.05,-1.99,-9.89,23.4
17:32:09,0.12,-2.04,-11.43,23.4
17:32:09,-0.09,-0.50,-7.83,23.4
17:32:10,-0.89,-1.30,-7.60,23.4
17:32:10,0.11,-0.43,-15.21,23.4
17:32:10,-0.21,0.61,-12.39,23.4
17:32:10,0.14,0.41,-7.44,23.4
17:32:10,-0.32,0.54,-10.14,23.4
17:32:10,0.46,-0.08,-4.08,23.4
17:32:10,0.37,0.44,-10.55,23.4
17:32:10,-0.83,1.56,-10.11,23.4
17:32:10,-0.42,2.11,-9.23,23.4
17:32:10,0.05,1.91,-10.17,23.4
17:32:10,0.29,2.32,-9.68,23.4
17:32:10,0.14,3.05,-10.61,23.4
17:32:10,0.27,2.37,-10.21,23.4
17:32:10,-0.35,2.17,-10.38,23.4
17:32:10,-0.16,1.18,-10.17,23.4
17:32:10,0.65,2.57,-10.40,23.4
17:32:10,0.24,1.29,-13.19,23.4
17:32:10,-0.11,1.45,-10.10,23.4
17:32:10,-0.18,2.86,-11.05,23.4
17:32:10,-0.46,0.68,-10.65,23.4
17:32:10,-0.36,2.32,-9.90,23.4
17:32:10,0.35,1.42,-10.46,23.4
17:32:10,1.11,1.44,-10.47,23.4
17:32:10,0.07,0.26,-3.91,23.4
17:32:10,0.55,0.79,-8.30,23.4
17:32:10,-0.05,0.00,-12.62,23.4
17:32:10,-0.54,-0.87,-10.35,23.4
17:32:10,-0.01,-0.58,-10.82,23.4
17:32:10,-1.28,-1.49,-7.74,23.4
17:32:10,-0.13,-1.73,-8.05,23.4
17:32:10,-0.47,-2.40,-12.54,23.4
17:32:10,-1.84,-1.29,-11.20,23.4
17:32:10,-0.27,-2.34,-11.19,23.4
17:32:10,0.53,-1.45,-9.63,23.4
17:32:10,-0.73,-2.85,-9.41,23.4
17:32:10,-0.45,-2.12,-10.06,23.4
17:32:10,0.03,-0.69,-10.01,23.4
17:32:10,-0.76,-2.83,-9.74,23.4
17:32:10,-0.55,-1.86,-10.10,23.4
17:32:10,-1.31,-1.52,-10.29,23.4
17:32:10,-0.35,-2.16,-9.52,23.4
17:32:10,0.09,-0.24,-12.54,23.4
17:32:10,0.11,-1.21,-11.07,23.4
17:32:10,-0.01,-2.25,-8.05,23.4
17:32:10,-0.94,-1.30,-11.16,23.4
17:32:10,-0.56,-1.28,-7.76,23.4
17:32:10,0.61,-0.42,-12.60,23.4
17:32:10,-0.36,-0.46,-9.99,23.4
17:32:10,-0.22,0.41,-12.55,23.4
17:32:10,0.37,0.84,-8.34,23.4
17:32:10,0.24,0.09,-9.45,23.4
17:32:10,0.42,1.78,-12.59,23.4
17:32:10,0.01,0.80,-8.80,23.4
17:32:10,1.14,1.21,-9.53,23.4
17:32:10,0.17,2.31,-10.95,23.4
17:32:10,-0.22,0.85,-9.81,23.4
17:32:10,0.27,2.63,-10.12,23.4
17:32:10,-0.57,2.25,-10.60,23.4
17:32:10,-0.12,1.38,-10.21,23.4
17:32:10,-0.60,1.44,-10.13,23.4
17:32:10,-0.16,0.73,-10.21,23.4
17:32:10,-0.30,0.56,-9.99,23.4
17:32:10,-0.25,0.29,-10.17,23.4
17:32:10,-0.18,0.30,-10.09,23.4
17:32:10,-0.13,0.32,-10.09,23.4
17:32:10,-0.01,0.02,-10.05,23.4
17:32:10,-0.11,0.15,-10.09,23.4
17:32:10,-0.10,0.06,-9.99,23.4
17:32:10,-0.16,-0.09,-9.99,23.4
17:32:10,-0.19,0.00,-10.00,23.4
17:32:10,0.05,-0.19,-10.13,23.4
17:32:10,0.08,-0.12,-9.97,23.4
17:32:10,-0.05,-0.08,-10.18,23.4
17:32:10,-0.05,0.09,-10.16,23.4
17:32:10,0.28,0.12,-10.06,23.4
17:32:10,0.05,0.13,-10.05,23.4
17:32:10,0.09,0.09,-10.11,23.4
17:32:10,-0.04,0.05,-10.07,23.4
17:32:10,0.50,-0.06,-10.01,23.4
17:32:10,0.59,0.06,-10.22,23.4
17:32:10,-0.51,-0.05,-10.18,23.4
17:32:10,0.43,0.26,-10.56,23.4
17:32:10,0.77,-0.63,-10.25,23.4
17:32:10,0.18,0.83,-11.80,23.4
17:32:10,0.45,0.82,-9.52,23.4
17:32:10,-0.10,1.23,-10.95,23.4
17:32:10,-1.41,2.01,-8.79,23.4
17:32:10,-0.28,1.11,-14.90,23.4
17:32:10,-1.00,0.80,-13.22,23.4
17:32:10,-0.88,0.08,-11.36,23.4
17:32:10,-2.39,0.36,-9.82,23.4
17:32:10,0.04,0.39,-8.74,23.4
17:32:10,-0.17,0.07,-8.94,23.4
17:32:10,-0.39,-0.11,-8.96,23.4
17:32:10,-0.54,0.06,-9.45,23.4
17:32:10,0.12,-0.12,-9.97,23.4
17:32:10,0.38,-0.33,-9.10,23.4
17:32:10,0.57,-0.17,-10.74,23.4
17:32:10,-0.56,-0.38,-11.13,23.4
17:32:10,-0.49,-0.32,-9.93,23.4
17:32:11,-0.43,-0.38,-10.25,23.4
17:32:11,-0.29,0.04,-9.55,23.4
17:32:11,0.03,-0.43,-9.90,23.4
17:32:11,0.05,-0.08,-10.20,23.4
17:32:11,-0.18,-0.21,-9.49,23.4
17:32:11,0.06,-0.68,-10.08,23.4
17:32:11,-0.01,-0.39,-9.84,23.4
17:32:11,-0.40,-0.39,-9.96,23.4
17:32:11,-0.22,-0.43,-9.83,23.4
17:32:11,0.10,0.26,-10.13,23.4
17:32:11,-0.05,0.16,-10.08,23.4
17:32:11,-0.09,0.14,-10.11,23.4
17:32:11,-0.03,0.03,-10.04,23.4
17:32:11,-0.16,0.10,-10.05,23.4
17:32:11,0.03,0.04,-9.94,23.4
17:32:11,-0.07,0.12,-10.01,23.4
17:32:11,-0.06,0.06,-9.95,23.4
17:32:11,0.15,-0.02,-10.03,23.4
17:32:11,-0.19,0.10,-10.01,23.4
17:32:11,0.00,0.04,-10.21,23.4
17:32:11,-0.04,0.16,-9.98,23.4
17:32:11,-0.07,0.04,-10.08,23.4
17:32:11,-0.02,0.07,-10.02,23.4
17:32:11,0.02,0.12,-10.15,23.4
17:32:11,-0.09,-0.05,-10.06,23.4
17:32:11,-0.03,-0.01,-10.08,23.4
17:32:11,-0.08,0.04,-10.04,23.4
17:32:11,-0.01,0.06,-10.03,23.4
17:32:11,0.11,0.22,-10.10,23.4
17:32:11,0.15,0.18,-10.07,23.4
17:32:11,-0.17,-0.10,-10.03,23.4
17:32:11,-0.13,0.00,-10.09,23.4
17:32:11,0.06,-0.02,-10.04,23.4
17:32:11,0.05,0.15,-10.14,23.4
17:32:11,-0.07,0.12,-10.03,23.4
17:32:11,-0.05,0.10,-9.95,23.4
17:32:11,0.05,0.03,-10.04,23.4
17:32:11,-0.11,0.04,-10.07,23.4
17:32:11,0.02,0.15,-9.99,23.4
17:32:11,-0.01,0.01,-10.10,23.4
17:32:11,-0.02,0.10,-10.07,23.4
17:32:11,-0.12,0.07,-10.00,23.4
17:32:11,-0.08,0.08,-10.05,23.4
17:32:11,-0.04,0.07,-9.99,23.4
17:32:11,0.04,0.04,-10.02,23.4
17:32:11,-0.06,0.07,-10.00,23.4
17:32:11,-0.02,0.08,-10.06,23.4
17:32:11,-0.06,0.11,-10.09,23.4
17:32:11,-0.01,0.10,-10.05,23.4
17:32:11,-0.10,0.09,-10.01,23.4
17:32:11,0.01,0.15,-10.06,23.4
17:32:11,0.01,0.04,-9.99,23.4
17:32:11,-0.11,0.05,-10.17,23.4
17:32:11,-0.05,0.13,-10.21,23.4
17:32:11,-0.17,0.09,-10.07,23.4
17:32:11,0.06,0.04,-10.15,23.4
17:32:11,0.00,0.05,-10.07,23.4
17:32:11,0.01,-0.03,-10.03,23.4
17:32:11,-0.05,0.11,-10.03,23.4
17:32:11,-0.20,0.09,-10.01,23.4
17:32:11,-0.08,0.06,-10.11,23.4
17:32:11,-0.08,0.15,-10.18,23.4
17:32:11,-0.06,0.10,-10.09,23.4
17:32:11,0.02,0.15,-10.08,23.4
17:32:11,-0.03,0.21,-10.12,23.4
17:32:11,-0.04,0.06,-9.98,23.4
17:32:11,0.03,0.15,-9.96,23.4
17:32:11,0.06,0.09,-10.10,23.4
17:32:11,0.03,0.17,-9.96,23.4
17:32:11,0.02,0.08,-9.98,23.4
17:32:11,0.00,0.15,-10.03,23.4
17:32:11,-0.02,0.20,-10.07,23.4
17:32:11,-0.11,-0.03,-10.00,23.4
17:32:11,-0.04,0.08,-10.10,23.4
17:32:11,-0.04,0.06,-10.05,23.4
17:32:11,-0.09,0.00,-10.06,23.4
17:32:11,-0.08,0.00,-10.02,23.4
17:32:11,0.10,0.19,-10.04,23.4
17:32:11,-0.02,0.12,-10.07,23.4
17:32:11,-0.07,0.08,-10.00,23.4
17:32:11,0.03,0.04,-10.08,23.4
17:32:11,-0.04,0.10,-10.03,23.4
17:32:11,-0.13,0.14,-10.03,23.4
17:32:11,-0.05,0.01,-10.08,23.4
17:32:11,-0.10,0.08,-10.03,23.4
17:32:11,-0.06,0.06,-10.07,23.4
17:32:11,-0.03,0.05,-10.11,23.4
17:32:11,0.01,0.03,-10.10,23.4
17:32:11,-0.13,0.12,-9.95,23.4
17:32:11,-0.59,0.19,-9.97,23.4
17:32:11,-0.17,0.13,-9.99,23.4
17:32:11,-0.05,0.12,-10.09,23.4
17:32:11,-0.05,0.02,-9.99,23.4
17:32:11,-0.10,0.07,-10.14,23.4
17:32:11,-0.02,0.07,-10.03,23.4
17:32:11,0.03,0.07,-10.16,23.4
17:32:11,-0.06,0.16,-10.09,23.4
17:32:11,-0.06,0.10,-10.09,23.4
17:32:11,0.01,0.05,-10.03,23.4
17:32:11,-0.09,0.15,-9.99,23.4
17:32:11,0.06,0.13,-10.07,23.4
17:32:12,0.02,0.05,-10.00,23.4
17:32:12,-0.11,0.07,-10.09,23.4
17:32:12,-0.01,0.02,-10.07,23.4
17:32:12,-0.14,0.04,-9.99,23.4
17:32:12,-0.15,0.08,-10.03,23.4
17:32:12,0.07,0.12,-10.10,23.4
17:32:12,-0.05,0.11,-10.07,23.4
17:32:12,-0.10,0.00,-10.09,23.4
17:32:12,-0.03,0.09,-10.13,23.4
17:32:12,-0.06,0.15,-10.02,23.4
17:32:12,0.05,0.17,-10.05,23.4
17:32:12,-0.04,0.17,-10.09,23.4
17:32:12,-0.03,0.00,-9.97,23.4
17:32:12,-0.09,0.12,-10.02,23.4
17:32:12,-0.06,0.13,-10.02,23.4
17:32:12,-0.07,0.00,-10.08,23.4
17:32:12,0.05,0.01,-9.96,23.4
17:32:12,-0.02,0.04,-10.17,23.4
17:32:12,0.03,0.05,-10.05,23.4
17:32:12,-0.03,0.13,-10.01,23.4
17:32:12,-0.04,0.12,-10.11,23.4
17:32:12,-0.06,0.17,-10.09,23.4
17:32:12,0.04,0.22,-10.11,23.4
17:32:12,-0.02,0.14,-10.08,23.4
17:32:12,0.01,0.10,-10.07,23.4
17:32:12,-0.07,0.25,-10.10,23.4
17:32:12,-0.01,0.01,-10.06,23.4
17:32:12,0.05,0.13,-10.04,23.4
17:32:12,-0.08,0.17,-10.12,23.4
17:32:12,0.00,0.00,-10.09,23.4
17:32:12,0.04,0.02,-10.03,23.4
17:32:12,0.01,0.14,-10.07,23.4
17:32:12,0.00,0.10,-9.95,23.4
17:32:12,-0.18,0.03,-10.05,23.4
17:32:12,0.03,0.01,-10.09,23.4
17:32:12,0.01,0.08,-10.06,23.4
17:32:12,-0.06,0.09,-10.09,23.4
17:32:12,-0.11,0.08,-10.07,23.4
17:32:12,-0.09,0.01,-10.04,23.4
17:32:12,0.01,0.08,-10.01,23.4
17:32:12,-0.10,0.07,-10.00,23.4
17:32:12,-0.14,-0.05,-10.04,23.4
17:32:12,0.04,0.04,-10.11,23.4
17:32:12,-0.05,0.10,-10.11,23.4
17:32:12,0.01,0.04,-10.10,23.4
17:32:12,-0.15,0.06,-10.04,23.4
17:32:12,-0.02,0.12,-10.07,23.4
17:32:12,-0.03,0.05,-10.14,23.4
17:32:12,-0.04,0.06,-10.00,23.4
17:32:12,-0.07,0.06,-10.06,23.4
17:32:12,-0.13,0.07,-10.10,23.4
17:32:12,0.00,0.07,-10.18,23.4
17:32:12,-0.03,0.11,-10.08,23.4
17:32:12,0.05,0.10,-10.05,23.4
17:32:12,-0.60,0.08,-10.07,23.4
17:32:12,-0.04,0.10,-10.10,23.4
17:32:12,-0.08,0.18,-10.11,23.4
17:32:12,-0.01,0.23,-10.05,23.4
17:32:12,-0.01,0.07,-10.07,23.4
17:32:12,0.00,0.08,-10.11,23.4
17:32:12,0.06,0.05,-10.11,23.4
17:32:12,0.08,0.16,-10.10,23.4
17:32:12,-0.06,0.08,-10.00,23.4
17:32:12,-0.08,0.06,-10.14,23.4
17:32:12,0.07,0.04,-10.11,23.4
17:32:12,0.03,0.10,-10.08,23.4
17:32:12,0.01,0.17,-10.03,23.4
17:32:12,-0.05,0.10,-10.10,23.4
17:32:12,-0.06,0.05,-9.95,23.4
17:32:12,-0.03,0.13,-10.01,23.4
17:32:12,-0.03,0.12,-10.16,23.4
17:32:12,0.04,0.15,-9.93,23.4
17:32:12,0.04,-0.01,-9.94,23.4
17:32:12,-0.16,0.13,-10.05,23.4
17:32:12,-0.03,0.10,-10.03,23.4
17:32:12,0.00,0.12,-10.09,23.4
17:32:12,-0.06,0.09,-10.04,23.4
17:32:12,-0.09,0.03,-10.07,23.4
17:32:12,0.01,0.04,-10.05,23.4
17:32:12,0.06,0.09,-10.10,23.4
17:32:12,0.00,0.06,-10.16,23.4
17:32:12,-0.04,0.07,-10.04,23.4
17:32:12,0.03,0.17,-10.03,23.4
17:32:12,0.01,0.16,-10.07,23.4
17:32:12,-0.16,0.08,-10.11,23.4
17:32:12,-0.01,0.03,-10.00,23.4
17:32:12,-0.01,0.05,-10.07,23.4
17:32:12,-0.11,0.10,-10.02,23.4
17:32:12,-0.14,0.05,-10.10,23.4
17:32:12,-0.02,0.14,-10.06,23.4
17:32:12,0.09,0.07,-10.16,23.4
17:32:12,-0.03,0.03,-10.01,23.4
17:32:12,0.02,0.05,-10.07,23.4
17:32:12,-0.09,0.10,-10.15,23.4
17:32:12,-0.04,-0.04,-10.05,23.4
17:32:12,-0.10,-0.06,-10.02,23.4
17:32:12,-0.03,0.09,-10.09,23.4
17:32:12,-0.03,0.07,-10.08,23.4
17:32:12,-0.16,0.03,-10.03,23.4
17:32:12,-0.04,0.11,-10.11,23.4
17:32:13,-0.07,0.04,-10.08,23.4
17:32:13,0.01,0.12,-10.02,23.4
17:32:13,-0.01,0.05,-9.99,23.4
17:32:13,-0.12,0.13,-10.13,23.4
17:32:13,-0.05,0.12,-10.09,23.4
17:32:13,-0.03,0.10,-10.04,23.4
17:32:13,0.02,0.18,-10.09,23.4
17:32:13,-0.12,0.05,-10.17,23.4
17:32:13,-0.03,0.03,-10.12,23.4
17:32:13,-0.01,0.07,-10.06,23.4
17:32:13,-0.04,-0.03,-10.11,23.4
17:32:13,-0.07,0.09,-10.08,23.4
17:32:13,0.02,0.16,-10.19,23.4
17:32:13,-0.08,0.12,-10.05,23.4
17:32:13,-0.15,0.08,-10.05,23.4
17:32:13,-0.11,0.06,-10.10,23.4
17:32:13,-0.16,0.06,-10.10,23.4
17:32:13,0.00,0.09,-10.03,23.4
17:32:13,0.04,0.08,-10.07,23.4
17:32:13,-0.03,0.00,-9.97,23.4
17:32:13,0.02,0.06,-10.05,23.4
17:32:13,-0.15,0.10,-10.07,23.4
17:32:13,0.03,0.05,-10.04,23.4
17:32:13,-0.11,0.05,-10.08,23.4
17:32:13,0.01,0.08,-10.14,23.4
17:32:13,-0.10,0.15,-10.14,23.4
17:32:13,-0.05,0.19,-10.00,23.4
17:32:13,0.00,0.20,-10.04,23.4
17:32:13,0.02,0.05,-10.06,23.4
17:32:13,0.01,0.10,-9.99,23.4
17:32:13,0.01,0.13,-10.07,23.4
17:32:13,-0.03,0.15,-10.11,23.4
17:32:13,-0.05,0.11,-10.03,23.4
17:32:13,-0.11,0.20,-10.13,23.4
17:32:13,-0.11,0.14,-10.01,23.4
17:32:13,-0.02,0.05,-10.04,23.4
17:32:13,-0.01,-0.01,-9.98,23.4
17:32:13,-0.03,0.11,-10.14,23.4
17:32:13,-0.13,0.14,-10.09,23.4
17:32:13,-0.13,0.15,-10.00,23.4
17:32:13,0.06,0.01,-10.13,23.4
17:32:13,-0.11,0.14,-10.07,23.4
17:32:13,0.04,0.07,-9.98,23.4
17:32:13,-0.06,0.14,-10.01,23.4
17:32:13,0.02,0.13,-10.11,23.4
17:32:13,-0.05,0.14,-10.11,23.4
17:32:13,0.06,0.03,-10.08,23.4
17:32:13,-0.12,0.04,-10.03,23.4
17:32:13,0.03,0.15,-10.12,23.4
17:32:13,-0.05,0.09,-10.10,23.4
17:32:13,-0.06,0.13,-9.97,23.4
17:32:13,0.03,0.15,-10.02,23.4
17:32:13,-0.05,0.09,-10.06,23.4
17:32:13,-0.03,0.00,-10.10,23.4
17:32:13,-0.09,0.04,-10.07,23.4
17:32:13,-0.04,0.16,-10.07,23.4
17:32:13,-0.09,0.16,-10.11,23.4
17:32:13,-0.01,0.12,-10.07,23.4
17:32:13,0.00,0.07,-10.05,23.4
17:32:13,0.01,0.09,-10.07,23.4
17:32:13,0.00,0.05,-10.10,23.4
17:32:13,-0.06,0.04,-10.09,23.4
17:32:13,0.03,0.06,-10.01,23.4
17:32:13,-0.03,0.10,-10.00,23.4
17:32:13,-0.02,0.11,-10.08,23.4
17:32:13,-0.15,0.05,-10.03,23.4
17:32:13,-0.07,0.12,-10.09,23.4
17:32:13,-0.08,0.09,-10.02,23.4
17:32:13,-0.02,0.19,-10.01,23.4
17:32:13,0.01,0.27,-10.03,23.4
17:32:13,0.05,0.19,-10.08,23.4
17:32:13,0.02,0.08,-10.10,23.4
17:32:13,0.03,0.02,-9.99,23.4
17:32:13,-0.06,0.01,-10.07,23.4
17:32:13,-0.03,-0.02,-10.11,23.4
17:32:13,-0.07,0.03,-10.04,23.4
17:32:13,-0.04,0.20,-10.05,23.4
17:32:13,0.00,-0.04,-10.10,23.4
17:32:13,-0.01,0.06,-9.94,23.4
17:32:13,-0.09,0.07,-10.11,23.4
17:32:13,-0.08,0.18,-10.01,23.4
17:32:13,-0.04,0.06,-10.04,23.4
17:32:13,-0.07,0.02,-10.05,23.4
17:32:13,-0.04,0.17,-9.94,23.4
17:32:13,0.03,0.05,-10.10,23.4
17:32:13,0.04,0.04,-10.02,23.4
17:32:13,0.00,0.08,-10.10,23.4
17:32:13,-0.08,0.17,-10.18,23.4
17:32:13,-0.04,0.04,-10.14,23.4
17:32:13,-0.10,0.06,-10.20,23.4
17:32:13,-0.04,0.08,-10.07,23.4
17:32:13,-0.01,0.02,-10.04,23.4
17:32:13,-0.04,0.08,-10.09,23.4
17:32:13,-0.04,0.12,-10.04,23.4
17:32:13,-0.04,0.07,-10.08,23.4
17:32:13,-0.09,0.17,-10.06,23.4
17:32:13,-0.03,0.14,-10.17,23.4
17:32:13,-0.02,0.04,-10.03,23.4
17:32:13,-0.01,0.12,-10.04,23.4
17:32:13,0.00,0.05,-10.03,23.4
17:32:13,0.08,0.09,-10.08,23.4
17:32:14,-0.09,0.13,-10.02,23.4
17:32:14,0.00,0.03,-9.99,23.4
17:32:14,-0.04,0.17,-10.02,23.4
17:32:14,-0.15,0.08,-10.00,23.4
17:32:14,-0.06,0.08,-10.13,23.4
17:32:14,-0.05,0.03,-10.08,23.4
17:32:14,-0.07,0.00,-10.00,23.4
17:32:14,-0.06,0.13,-10.14,23.4
17:32:14,0.00,0.13,-10.06,23.4
17:32:14,0.03,0.11,-10.08,23.4
17:32:14,0.19,0.11,-9.95,23.4
17:32:14,-0.01,0.01,-10.08,23.4
17:32:14,-0.08,0.21,-10.12,23.4
17:32:14,-0.03,0.14,-10.05,23.4
17:32:14,0.03,0.03,-9.99,23.4
17:32:14,0.01,0.02,-10.04,23.4
17:32:14,0.00,0.06,-10.11,23.4
17:32:14,-0.13,0.07,-10.05,23.4
17:32:14,-0.06,0.05,-10.06,23.4
17:32:14,-0.09,-0.01,-9.94,23.4
17:32:14,-0.02,0.05,-10.18,23.4
17:32:14,-0.11,0.06,-9.95,23.4
17:32:14,-0.12,0.17,-10.06,23.4
17:32:14,0.00,0.10,-9.97,23.4
17:32:14,0.02,0.05,-10.01,23.4
17:32:14,-0.04,0.15,-10.17,23.4
17:32:14,-0.04,0.17,-10.13,23.4
17:32:14,0.00,0.10,-10.02,23.4
17:32:14,0.06,0.14,-10.15,23.4
17:32:14,-0.03,0.14,-9.96,23.4
17:32:14,-0.08,-0.04,-9.99,23.4
17:32:14,0.02,0.13,-10.10,23.4
17:32:14,0.01,-0.07,-9.96,23.4
17:32:14,-0.61,0.00,-10.00,23.4
17:32:14,-0.10,0.09,-10.07,23.4
17:32:14,-0.07,0.17,-10.05,23.4
17:32:14,-0.14,0.30,-10.18,23.4
17:32:14,0.10,0.38,-10.03,23.4
17:32:14,0.01,0.27,-10.06,23.4
17:32:14,-0.09,-0.25,-10.18,23.4
17:32:14,-0.14,-0.28,-9.99,23.4
17:32:14,-0.18,-0.20,-10.11,23.4
17:32:14,-0.26,-0.09,-10.02,23.4
17:32:14,0.03,-0.06,-10.07,23.4
17:32:14,-0.07,0.23,-10.16,23.4
17:32:14,-0.17,-0.01,-10.10,23.4
17:32:14,-0.04,0.12,-10.07,23.4
17:32:14,-0.09,0.02,-9.99,23.4
17:32:14,-0.08,0.08,-10.08,23.4
17:32:14,0.02,0.07,-10.07,23.4
17:32:14,0.03,-0.01,-10.05,23.4
17:32:14,-0.09,0.03,-10.07,23.4
17:32:14,-0.05,-0.01,-10.12,23.4
17:32:14,-0.01,0.01,-9.99,23.4
17:32:14,-0.05,0.11,-10.14,23.4
17:32:14,-0.01,0.05,-10.05,23.4
17:32:14,-0.03,0.11,-9.98,23.4
17:32:14,-0.09,-0.01,-10.03,23.4
17:32:14,0.00,0.10,-10.00,23.4
17:32:14,0.02,0.02,-10.02,23.4
17:32:14,0.60,0.09,-9.98,23.4
17:32:14,-0.14,0.08,-10.10,23.4
17:32:14,-0.08,0.09,-10.04,23.4
17:32:14,0.03,0.04,-10.04,23.4
17:32:14,-0.07,0.09,-10.05,23.4
17:32:14,-0.17,0.13,-10.05,23.4
17:32:14,-0.08,-0.03,-10.07,23.4
17:32:14,0.07,0.12,-10.14,23.4
17:32:14,0.00,0.07,-10.04,23.4
17:32:14,0.06,0.03,-10.06,23.4
17:32:14,-0.09,0.12,-10.16,23.4
17:32:14,-0.04,0.13,-9.95,23.4
17:32:14,-0.10,0.12,-10.12,23.4
17:32:14,-0.07,0.07,-10.06,23.4
17:32:14,-0.11,-0.02,-10.08,23.4
17:32:14,-0.05,0.04,-10.02,23.4
17:32:14,-0.12,0.05,-10.03,23.4
17:32:14,-0.11,0.03,-10.09,23.4
17:32:14,-0.14,-0.11,-10.01,23.4
17:32:14,-0.08,0.05,-10.00,23.4
17:32:14,-0.05,0.14,-10.19,23.4
17:32:14,-0.03,0.05,-10.03,23.4
17:32:14,-0.06,0.04,-10.05,23.4
17:32:14,0.00,0.04,-10.10,23.4
17:32:14,-0.12,0.08,-10.11,23.4
17:32:14,-0.08,-0.03,-10.03,23.4
17:32:14,-0.12,0.15,-10.00,23.4
17:32:14,-0.13,0.10,-10.04,23.4
17:32:14,0.01,0.15,-10.15,23.4
17:32:14,-0.05,0.01,-10.01,23.4
17:32:14,-0.01,0.10,-10.11,23.4
17:32:14,-0.07,0.14,-10.01,23.4
17:32:14,0.00,0.06,-10.04,23.4
17:32:14,-0.03,0.12,-10.03,23.4
17:32:14,-0.06,0.07,-10.04,23.4
17:32:14,-0.17,0.04,-10.08,23.4
17:32:14,-0.10,0.00,-10.04,23.4
17:32:14,-0.10,0.14,-10.25,23.4
17:32:14,-0.06,0.05,-10.09,23.4
17:32:14,-0.08,-0.02,-10.05,23.4
17:32:15,-0.05,0.06,-10.09,23.4
17:32:15,-0.01,0.06,-10.06,23.4
17:32:15,-0.03,0.06,-10.08,23.4
17:32:15,-0.04,0.02,-10.10,23.4
17:32:15,0.01,0.05,-10.00,23.4
17:32:15,-0.07,0.08,-10.06,23.4
17:32:15,-0.09,-0.04,-10.06,23.4
17:32:15,-0.05,0.05,-10.18,23.4
